C:\COSMOS\COSMOS-Telemetry\outputs\logs\2018_02_03_14_22_43_tlm.bin

TARGET	PACKET	TEMP	ACCEL_X	ACCEL_Y	ACCEL_Z	GYRO_X	GYRO_Y	GYRO_Z	MAG_X	MAG_Y	MAG_Z	RTC	RECEIVED_TIMEFORMATTED	
UPBOARD	IMU	22.801305770874023	0.9867059588432312	-0.03911399841308594	0.0051659997552633286	-0.11963199824094772	-0.24674099683761597	-0.6299999952316284	0.549839973449707	0.49473997950553894	-0.03856999799609184	2175	2018/02/03 14:22:43.530
UPBOARD	IMU	22.79939842224121	0.9867059588432312	-0.04132799804210663	0.008117999881505966	-0.39628100395202637	-0.08224699646234512	-0.4637500047683716	0.549839973449707	0.49473997950553894	-0.03856999799609184	2175	2018/02/03 14:22:43.564
UPBOARD	IMU	22.79558563232422	0.991133987903595	-0.03689999878406525	0.008117999881505966	-0.19440199434757233	-0.34394198656082153	-0.27125000953674316	0.549839973449707	0.49473997950553894	-0.03856999799609184	2175	2018/02/03 14:22:43.610
UPBOARD	IMU	22.784143447875977	0.9867059588432312	-0.03837599977850914	0.005903999786823988	0.06729299575090408	-0.3738499879837036	-0.65625	0.5562199950218201	0.5051800012588501	-0.03392999991774559	2175	2018/02/03 14:22:43.651
UPBOARD	IMU	22.79939842224121	0.9859679937362671	-0.03689999878406525	0.006641999818384647	-0.1420629918575287	-0.26917198300361633	-0.39375001192092896	0.5562199950218201	0.5051800012588501	-0.03392999991774559	2175	2018/02/03 14:22:43.677
UPBOARD	IMU	22.80512046813965	0.9837539792060852	-0.037637997418642044	0.0051659997552633286	-0.13458599150180817	-0.32151100039482117	-0.35875001549720764	0.5562199950218201	0.5051800012588501	-0.03392999991774559	2175	2018/02/03 14:22:43.687
UPBOARD	IMU	22.78986358642578	0.9867059588432312	-0.039851997047662735	0.0051659997552633286	-0.0747699961066246	-0.23926399648189545	-0.4987500011920929	0.5562199950218201	0.5051800012588501	-0.03392999991774559	2175	2018/02/03 14:22:43.721
UPBOARD	IMU	22.79939842224121	0.9874439835548401	-0.03616200014948845	0.005903999786823988	-0.47105100750923157	-0.2243099957704544	-0.5862500071525574	37864431616.0	1.7366385755374568e-38	0.0	2175	2018/02/03 14:22:43.733
UPBOARD	IMU	22.784143447875977	0.9881819486618042	-0.03689999878406525	0.006641999818384647	-0.2916029989719391	-0.12710899114608765	-0.4987500011920929	0.5509999990463257	0.4967699944972992	-0.037700001150369644	2175	2018/02/03 14:22:43.788
UPBOARD	IMU	22.80702781677246	0.9881819486618042	-0.037637997418642044	0.007379999849945307	0.10467799752950668	-0.12710899114608765	-0.6474999785423279	0.5509999990463257	0.4967699944972992	-0.037700001150369644	2175	2018/02/03 14:22:43.822
UPBOARD	IMU	22.801305770874023	0.9852299690246582	-0.04132799804210663	0.006641999818384647	-0.08972399681806564	-0.38880398869514465	-0.4987500011920929	0.5536099672317505	0.4976399838924408	-0.04292000085115433	2175	2018/02/03 14:22:43.851
UPBOARD	IMU	22.793678283691406	0.9852299690246582	-0.03689999878406525	0.009593999944627285	0.007476999890059233	-0.3289879858493805	-0.5600000023841858	0.5536099672317505	0.4976399838924408	-0.04292000085115433	2175	2018/02/03 14:22:43.898
UPBOARD	IMU	22.78605079650879	0.9867059588432312	-0.04058999940752983	0.006641999818384647	-0.31403398513793945	-0.3588959872722626	-0.4025000035762787	0.5536099672317505	0.4976399838924408	-0.04292000085115433	2175	2018/02/03 14:22:43.913
UPBOARD	IMU	22.793678283691406	0.9852299690246582	-0.037637997418642044	0.005903999786823988	-0.2841259837150574	-0.31403398513793945	-0.2887499928474426	0.5434600114822388	0.49706000089645386	-0.031029999256134033	2175	2018/02/03 14:22:43.949
UPBOARD	IMU	22.78986358642578	0.9852299690246582	-0.04058999940752983	0.008117999881505966	-0.3289879858493805	-0.3588959872722626	-0.612500011920929	0.5434600114822388	0.49706000089645386	-0.031029999256134033	2175	2018/02/03 14:22:43.971
UPBOARD	IMU	22.79558563232422	0.9852299690246582	-0.03689999878406525	0.006641999818384647	-0.09720099717378616	-0.2990799844264984	-0.4025000035762787	0.5434600114822388	0.49706000089645386	-0.031029999256134033	2175	2018/02/03 14:22:44.006
UPBOARD	IMU	22.793678283691406	0.9808019399642944	-0.03911399841308594	0.006641999818384647	0.08224699646234512	-0.19440199434757233	-0.4637500047683716	0.5478100180625916	0.4959000051021576	-0.03856999799609184	2175	2018/02/03 14:22:44.042
UPBOARD	IMU	22.79558563232422	0.9844919443130493	-0.04280399903655052	0.004427999723702669	-0.0747699961066246	-0.2990799844264984	-0.6037499904632568	0.5478100180625916	0.4959000051021576	-0.03856999799609184	2175	2018/02/03 14:22:44.077
UPBOARD	IMU	22.7974910736084	0.9844919443130493	-0.03911399841308594	0.007379999849945307	-0.46357399225234985	-0.24674099683761597	-0.3149999976158142	0.5478100180625916	0.4959000051021576	-0.03856999799609184	2175	2018/02/03 14:22:44.099
UPBOARD	IMU	22.78795623779297	0.9844919443130493	-0.03689999878406525	0.0051659997552633286	-0.5532979965209961	-0.20187899470329285	-0.3062500059604645	0.5524500012397766	0.5008299946784973	-0.041179999709129333	2175	2018/02/03 14:22:44.135
UPBOARD	IMU	22.80512046813965	0.9852299690246582	-0.03616200014948845	0.006641999818384647	-0.4336659908294678	-0.39628100395202637	-0.5774999856948853	0.5524500012397766	0.5008299946784973	-0.041179999709129333	2175	2018/02/03 14:22:44.169
UPBOARD	IMU	22.791770935058594	0.9830159544944763	-0.034685999155044556	0.008855999447405338	-0.02243099920451641	-0.3663730025291443	-0.3149999976158142	0.5524500012397766	0.5008299946784973	-0.041179999709129333	2175	2018/02/03 14:22:44.201
UPBOARD	IMU	22.7974910736084	0.9793259501457214	-0.03837599977850914	0.007379999849945307	0.11963199824094772	-0.1121549978852272	-0.5337499976158142	0.5524500012397766	0.5008299946784973	-0.02928999997675419	2176	2018/02/03 14:22:44.234
UPBOARD	IMU	22.801305770874023	0.9844919443130493	-0.04058999940752983	0.008117999881505966	0.007476999890059233	-0.2990799844264984	-0.4025000035762787	0.5539000034332275	0.49792999029159546	-0.02928999997675419	2176	2018/02/03 14:22:44.268
UPBOARD	IMU	22.79939842224121	0.9837539792060852	-0.04132799804210663	0.0051659997552633286	-0.27664899826049805	-0.12710899114608765	-0.5600000023841858	0.5539000034332275	0.49792999029159546	-0.02928999997675419	2176	2018/02/03 14:22:44.293
UPBOARD	IMU	22.78605079650879	0.9881819486618042	-0.03616200014948845	0.006641999818384647	-0.15701699256896973	-0.23926399648189545	-0.5074999928474426	0.5539000034332275	0.49792999029159546	-0.02928999997675419	2176	2018/02/03 14:22:44.327
UPBOARD	IMU	22.79558563232422	0.9881819486618042	-0.03542399778962135	0.005903999786823988	-0.5009589791297913	-0.3289879858493805	-0.65625	0.5518699884414673	0.49966999888420105	-0.02725999988615513	2176	2018/02/03 14:22:44.381
UPBOARD	IMU	22.78605079650879	0.9874439835548401	-0.03616200014948845	0.0051659997552633286	-0.06729299575090408	-0.2542179822921753	-0.26249998807907104	0.5518699884414673	0.49966999888420105	-0.02725999988615513	2176	2018/02/03 14:22:44.403
UPBOARD	IMU	0.7479891777038574	5.1278659115545484e-18	1.1196742889296729e-05	4.1030067515483945e-17	-399870112.0	2.6896691525320704e+16	-0.7462963461875916	8.601845051707884e+17	1.734518270831087e-38	0.0	2176	2018/02/03 14:22:44.425
UPBOARD	IMU	22.801305770874023	0.9830159544944763	-0.04058999940752983	0.005903999786823988	-0.16449399292469025	-0.20935599505901337	-0.3675000071525574	0.5527399778366089	0.49647998809814453	-0.04814000055193901	2176	2018/02/03 14:22:44.468
UPBOARD	IMU	22.78795623779297	0.9896579384803772	-0.039851997047662735	0.007379999849945307	-0.23926399648189545	-0.24674099683761597	-0.2537499964237213	0.5527399778366089	0.49647998809814453	-0.04814000055193901	2176	2018/02/03 14:22:44.499
UPBOARD	IMU	22.801305770874023	0.9844919443130493	-23.639251708984375	-1.4209923564976052e+25	3.0916611646722515e+34	8.476211946955095e-14	6.883661870482326e+18	-1.6182796067864923e-19	1.5132020516495827e+31	1.7381725769663531e-38	2176	2018/02/03 14:22:44.532
UPBOARD	IMU	22.80893325805664	0.9889199733734131	-0.03542399778962135	0.006641999818384647	-0.3289879858493805	-0.261694997549057	-0.2887499928474426	0.5547699928283691	0.494159996509552	-0.03189999982714653	2176	2018/02/03 14:22:44.566
UPBOARD	IMU	22.7974910736084	0.9852299690246582	-0.03542399778962135	0.007379999849945307	0.02990799956023693	-0.1420629918575287	-0.6737499833106995	0.5547699928283691	0.494159996509552	-0.03189999982714653	2176	2018/02/03 14:22:44.599
UPBOARD	IMU	22.78986358642578	0.9889199733734131	-0.04132799804210663	0.007379999849945307	-0.08224699646234512	-0.3065569996833801	-0.4724999964237213	0.5547699928283691	0.494159996509552	-0.03189999982714653	2176	2018/02/03 14:22:44.634
UPBOARD	IMU	22.791770935058594	0.9837539792060852	-0.04280399903655052	0.005903999786823988	-0.24674099683761597	-0.2243099957704544	-0.699999988079071	0.5443300008773804	0.4976399838924408	-0.04755999892950058	2176	2018/02/03 14:22:44.669
UPBOARD	IMU	22.79558563232422	0.9837539792060852	-0.039851997047662735	0.006641999818384647	-0.1495399922132492	-0.08972399681806564	-0.6825000047683716	0.5443300008773804	0.4976399838924408	-0.04755999892950058	2176	2018/02/03 14:22:44.701
UPBOARD	IMU	22.803213119506836	0.9815399646759033	-0.03394800052046776	0.006641999818384647	-0.2916029989719391	-0.2542179822921753	-0.6912500262260437	0.5443300008773804	0.4976399838924408	-0.04755999892950058	2176	2018/02/03 14:22:44.724
UPBOARD	IMU	22.793678283691406	0.9822779893875122	-0.03542399778962135	0.005903999786823988	-8.668080836438108e-11	1641794109440.0	-4.343983506238658e-11	-3.694397024512098e+27	1.736936771850665e-38	0.0	2176	2018/02/03 14:22:44.756
UPBOARD	IMU	22.80512046813965	0.9822779893875122	-0.037637997418642044	0.005903999786823988	0.08224699646234512	-0.2990799844264984	-0.6212499737739563	0.5504199862480164	0.49792999029159546	-0.039730001240968704	2176	2018/02/03 14:22:44.788
UPBOARD	IMU	22.793678283691406	0.9867059588432312	-0.03911399841308594	0.005903999786823988	0.1121549978852272	0.02243099920451641	-0.4025000035762787	0.5504199862480164	0.49792999029159546	-0.039730001240968704	2176	2018/02/03 14:22:44.821
UPBOARD	IMU	22.793678283691406	0.9830159544944763	-0.03837599977850914	0.005903999786823988	-0.19440199434757233	-0.08224699646234512	2.6848489107357696e+16	1.4097139406097456e+22	9.019745202438936e+23	1.7366811750107722e-38	2176	2018/02/03 14:22:44.855
UPBOARD	IMU	22.791770935058594	0.9859679937362671	-0.039851997047662735	0.0051659997552633286	-0.2542179822921753	-0.19440199434757233	-0.3062500059604645	0.5518699884414673	0.500540018081665	-0.03799000009894371	2176	2018/02/03 14:22:44.889
UPBOARD	IMU	22.791770935058594	0.9867059588432312	-0.03837599977850914	0.004427999723702669	-0.17197099328041077	-0.32151100039482117	-0.5425000190734863	0.5518699884414673	0.500540018081665	-0.03799000009894371	2176	2018/02/03 14:22:44.922
UPBOARD	IMU	22.7974910736084	0.9867059588432312	-0.039851997047662735	0.007379999849945307	-0.06729299575090408	-0.3289879858493805	-0.21875	0.5518699884414673	0.5016999840736389	-0.035670001059770584	2176	2018/02/03 14:22:44.954
UPBOARD	IMU	22.79558563232422	0.9867059588432312	-0.03689999878406525	0.0051659997552633286	-0.12710899114608765	-0.261694997549057	-0.6387500166893005	0.5478100180625916	0.5016999840736389	-0.035670001059770584	2176	2018/02/03 14:22:44.986
UPBOARD	IMU	22.803213119506836	0.9867059588432312	-0.04058999940752983	0.007379999849945307	-0.08224699646234512	-0.2542179822921753	-0.6037499904632568	0.5478100180625916	0.5016999840736389	-0.035670001059770584	2176	2018/02/03 14:22:45.030
UPBOARD	IMU	22.793678283691406	0.9844919443130493	-0.039851997047662735	0.007379999849945307	-0.4486199915409088	-0.08224699646234512	-0.14875000715255737	0.5478100180625916	0.5016999840736389	-0.035670001059770584	2176	2018/02/03 14:22:45.062
UPBOARD	IMU	22.791770935058594	0.9867059588432312	-0.03689999878406525	0.0051659997552633286	-0.4336659908294678	-0.2243099957704544	-0.45500001311302185	0.5478100180625916	1.7366811750107722e-38	0.0	2176	2018/02/03 14:22:45.083
UPBOARD	IMU	22.79558563232422	0.9859679937362671	-0.039851997047662735	0.006641999818384647	-0.08972399681806564	-0.11963199824094772	-0.42875000834465027	0.5478100180625916	0.4976399838924408	-0.03799000009894371	2176	2018/02/03 14:22:45.126
UPBOARD	IMU	22.79939842224121	0.9859679937362671	-0.034685999155044556	0.006641999818384647	-0.014953999780118465	-0.24674099683761597	-0.5862500071525574	0.5478100180625916	0.4976399838924408	-0.03799000009894371	2176	2018/02/03 14:22:45.157
UPBOARD	IMU	22.7974910736084	0.9859679937362671	-0.03837599977850914	0.007379999849945307	0.007476999890059233	-0.06729299575090408	-0.3499999940395355	0.551580011844635	0.4993799924850464	-0.041759997606277466	2176	2018/02/03 14:22:45.188
UPBOARD	IMU	22.791770935058594	0.9844919443130493	-0.03616200014948845	0.005903999786823988	-0.2916029989719391	-0.2168329954147339	-0.4724999964237213	0.551580011844635	0.4993799924850464	-0.041759997606277466	2177	2018/02/03 14:22:45.219
UPBOARD	IMU	22.78795623779297	0.9808019399642944	-0.03689999878406525	0.005903999786823988	-0.04486199840903282	-0.2916029989719391	-0.5512499809265137	0.551580011844635	0.4993799924850464	-0.041759997606277466	2177	2018/02/03 14:22:45.252
UPBOARD	IMU	22.7974910736084	0.9852299690246582	-0.03616200014948845	0.0051659997552633286	-0.27664899826049805	-0.2168329954147339	-0.48124998807907104	0.5504199862480164	0.4982199966907501	-0.03537999838590622	2177	2018/02/03 14:22:45.283
UPBOARD	IMU	22.79558563232422	0.9822779893875122	-0.039851997047662735	0.005903999786823988	-0.2243099957704544	-1.9066349267959595	-0.5074999928474426	0.5504199862480164	0.4982199966907501	-0.03537999838590622	2177	2018/02/03 14:22:45.320
UPBOARD	IMU	22.78986358642578	0.9889199733734131	-0.03837599977850914	0.007379999849945307	-0.24674099683761597	-0.2916029989719391	-0.5950000286102295	0.5504199862480164	0.4982199966907501	-0.03537999838590622	2177	2018/02/03 14:22:45.357
UPBOARD	IMU	22.79558563232422	0.9830159544944763	-0.03911399841308594	0.0051659997552633286	-0.02243099920451641	-0.0747699961066246	-0.5249999761581421	0.5504199862480164	0.5045999884605408	-0.03740999847650528	2177	2018/02/03 14:22:45.379
UPBOARD	IMU	22.79939842224121	0.9822779893875122	-0.04280399903655052	0.007379999849945307	-0.3813270032405853	-0.09720099717378616	-0.7262499928474426	0.5504199862480164	0.5045999884605408	-0.03740999847650528	2177	2018/02/03 14:22:45.410
UPBOARD	IMU	22.78986358642578	0.9867059588432312	-0.037637997418642044	0.007379999849945307	-0.2916029989719391	-0.4112350046634674	-0.2887499928474426	0.5504199862480164	0.5045999884605408	-0.03740999847650528	2177	2018/02/03 14:22:45.453
UPBOARD	IMU	22.79558563232422	0.9822779893875122	-0.037637997418642044	0.007379999849945307	-0.2168329954147339	-0.20935599505901337	-0.5425000190734863	0.5533199906349182	0.500249981880188	-0.0414699986577034	2177	2018/02/03 14:22:45.474
UPBOARD	IMU	22.791770935058594	0.9837539792060852	-0.03616200014948845	0.008855999447405338	-0.2916029989719391	-0.04486199840903282	-0.32374998927116394	0.5533199906349182	0.500249981880188	-0.0414699986577034	2177	2018/02/03 14:22:45.516
UPBOARD	IMU	22.801305770874023	0.9852299690246582	-0.03837599977850914	0.008117999881505966	-0.007476999890059233	-0.2542179822921753	-0.6387500166893005	0.5533199906349182	0.500249981880188	-0.0414699986577034	2177	2018/02/03 14:22:45.547
UPBOARD	IMU	22.801305770874023	0.9844919443130493	-0.03616200014948845	0.008117999881505966	-0.02243099920451641	-0.4336659908294678	-0.3762499988079071	0.5434600114822388	0.49966999888420105	-0.04030999913811684	2177	2018/02/03 14:22:45.604
UPBOARD	IMU	22.791770935058594	0.9837539792060852	-0.03689999878406525	0.005903999786823988	-0.34394198656082153	-0.42618900537490845	-0.4112499952316284	0.5434600114822388	0.49966999888420105	-0.04030999913811684	2177	2018/02/03 14:22:45.636
UPBOARD	IMU	22.79558563232422	0.9844919443130493	-0.037637997418642044	0.007379999849945307	-0.3065569996833801	-0.3588959872722626	-0.5687500238418579	0.5434600114822388	0.4990899860858917	-0.031610000878572464	2177	2018/02/03 14:22:45.667
UPBOARD	IMU	22.79939842224121	0.9852299690246582	-0.03616200014948845	0.004427999723702669	-0.1121549978852272	-0.26917198300361633	-0.5249999761581421	0.543749988079071	0.4990899860858917	-0.031610000878572464	2177	2018/02/03 14:22:45.717
UPBOARD	IMU	22.79558563232422	0.9867059588432312	-0.03689999878406525	0.006641999818384647	-0.05233899876475334	-0.15701699256896973	-0.39375001192092896	0.543749988079071	0.4990899860858917	-0.031610000878572464	2177	2018/02/03 14:22:45.751
UPBOARD	IMU	0.9818933010101318	-0.04132799804210663	0.0051659997552633286	0.0373849980533123	-0.2542179822921753	-0.38499999046325684	0.543749988079071	0.4990899860858917	-0.031610000878572464	0.0	2177	2018/02/03 14:22:45.789
UPBOARD	IMU	22.79558563232422	0.9844919443130493	-0.04280399903655052	0.007379999849945307	0.0747699961066246	-0.27664899826049805	-0.4987500011920929	0.5460699796676636	0.5051800012588501	-0.034219998866319656	2177	2018/02/03 14:22:45.821
UPBOARD	IMU	22.80512046813965	0.9859679937362671	-2.9137627346713694e-31	1.1185481525899377e-05	6.835303699825295e+18	389749.78125	0.37312987446784973	2.4799197245069566e+35	3056.082763671875	1.7361272417278246e-38	2177	2018/02/03 14:22:45.850
UPBOARD	IMU	22.80893325805664	0.9837539792060852	-0.04058999940752983	0.0036899999249726534	-0.2916029989719391	-0.19440199434757233	-0.3062500059604645	0.5460699796676636	0.5051800012588501	-0.034219998866319656	2177	2018/02/03 14:22:45.875
UPBOARD	IMU	22.77651596069336	0.9881819486618042	176153788678144.0	-2.668169071101678e-12	-2.878557458380048e+25	-8.64194271699148e-11	25051790.0	5.63876163720677e+22	4.141670165995858e-17	1.7375334447367746e-38	2177	2018/02/03 14:22:45.912
UPBOARD	IMU	22.7974910736084	0.9859679937362671	-0.03689999878406525	0.006641999818384647	-0.007476999890059233	-0.13458599150180817	-0.5337499976158142	0.5486800074577332	0.5008299946784973	-0.043789997696876526	2177	2018/02/03 14:22:45.939
UPBOARD	IMU	22.79939842224121	0.9852299690246582	-0.037637997418642044	0.005903999786823988	-0.15701699256896973	-0.1794479936361313	-0.2887499928474426	0.5486800074577332	0.5008299946784973	-0.043789997696876526	2177	2018/02/03 14:22:45.971
UPBOARD	IMU	22.80512046813965	0.9844919443130493	-0.03689999878406525	0.006641999818384647	-0.17197099328041077	-0.3065569996833801	-0.4025000035762787	0.545199990272522	0.5057600140571594	-0.045819997787475586	2177	2018/02/03 14:22:46.004
UPBOARD	IMU	22.803213119506836	0.9852299690246582	-0.03616200014948845	0.005903999786823988	-0.17197099328041077	-0.09720099717378616	-0.2537499964237213	0.545199990272522	0.5057600140571594	-0.045819997787475586	2177	2018/02/03 14:22:46.038
UPBOARD	IMU	22.78986358642578	0.9844919443130493	-0.03837599977850914	0.007379999849945307	-0.2243099957704544	-0.38880398869514465	-0.3675000071525574	0.545199990272522	0.5057600140571594	-0.045819997787475586	2177	2018/02/03 14:22:46.071
UPBOARD	IMU	22.784143447875977	0.9889199733734131	-0.03837599977850914	0.0051659997552633286	4.296795577678561e+17	2.820193493156144e+22	3.608906022600977e+24	51271548928.0	1.7366385755374568e-38	0.0	2177	2018/02/03 14:22:46.104
UPBOARD	IMU	22.793678283691406	0.9852299690246582	-0.037637997418642044	0.005903999786823988	-0.20935599505901337	-0.3663730025291443	-0.3062500059604645	0.5539000034332275	0.5014100074768066	-0.037700001150369644	2177	2018/02/03 14:22:46.137
UPBOARD	IMU	22.793678283691406	0.9859679937362671	-0.03837599977850914	0.005903999786823988	-0.16449399292469025	-0.17197099328041077	-0.3762499988079071	0.5539000034332275	0.5014100074768066	-0.037700001150369644	2177	2018/02/03 14:22:46.170
UPBOARD	IMU	22.79939842224121	0.9867059588432312	-0.039851997047662735	0.007379999849945307	-0.31403398513793945	-0.23926399648189545	-0.6037499904632568	0.5521599650382996	0.5011199712753296	-0.04205000028014183	2177	2018/02/03 14:22:46.203
UPBOARD	IMU	22.78986358642578	0.9830159544944763	-0.03911399841308594	0.007379999849945307	-0.19440199434757233	-0.2243099957704544	1.008806299351122e+17	2.2555457277113097e+23	-4.044605910711439e-20	1.7372777077670353e-38	2178	2018/02/03 14:22:46.226
UPBOARD	IMU	22.79558563232422	0.9852299690246582	-0.039851997047662735	0.010331999510526657	-0.5532979965209961	-0.5981599688529968	-0.44624999165534973	0.5521599650382996	0.5011199712753296	-0.04205000028014183	2178	2018/02/03 14:22:46.259
UPBOARD	IMU	22.7974910736084	0.9830159544944763	-0.03911399841308594	0.0051659997552633286	-0.0747699961066246	-0.23178699612617493	-0.6650000214576721	0.5469399690628052	0.5045999884605408	-0.0423399992287159	2178	2018/02/03 14:22:46.292
UPBOARD	IMU	22.791770935058594	0.9859679937362671	-0.03542399778962135	0.0051659997552633286	-0.0747699961066246	-0.23178699612617493	-0.21000000834465027	0.5469399690628052	0.5045999884605408	-0.0423399992287159	2178	2018/02/03 14:22:46.326
UPBOARD	IMU	22.78605079650879	0.9837539792060852	-0.03837599977850914	0.005903999786823988	-0.02243099920451641	-0.4486199915409088	-0.4724999964237213	0.5469399690628052	0.5045999884605408	-0.0423399992287159	2178	2018/02/03 14:22:46.360
UPBOARD	IMU	22.78986358642578	0.9874439835548401	-0.03911399841308594	0.007379999849945307	-0.15701699256896973	-0.31403398513793945	-0.5162500143051147	0.5469399690628052	0.5045999884605408	-0.0423399992287159	2178	2018/02/03 14:22:46.392
UPBOARD	IMU	22.79939842224121	0.9859679937362671	-0.03616200014948845	0.006641999818384647	-0.4336659908294678	-0.27664899826049805	-0.5425000190734863	0.5539000034332275	0.4993799924850464	-0.04698000103235245	2178	2018/02/03 14:22:46.426
UPBOARD	IMU	22.803213119506836	0.9852299690246582	-0.03394800052046776	0.005903999786823988	-0.05233899876475334	-0.3289879858493805	-0.6387500166893005	0.5539000034332275	0.4993799924850464	-0.04698000103235245	2178	2018/02/03 14:22:46.460
UPBOARD	IMU	22.78986358642578	0.9859679937362671	-0.03542399778962135	0.007379999849945307	0.0373849980533123	-0.0747699961066246	-0.49000000953674316	0.5539000034332275	0.4993799924850464	-0.04698000103235245	2178	2018/02/03 14:22:46.482
UPBOARD	IMU	22.803213119506836	0.9859679937362671	-0.037637997418642044	0.008117999881505966	-0.09720099717378616	-0.10467799752950668	-0.3762499988079071	0.5541899800300598	0.5043100118637085	-0.03392999991774559	2178	2018/02/03 14:22:46.515
UPBOARD	IMU	22.7974910736084	0.9859679937362671	-0.04058999940752983	0.005903999786823988	-0.20187899470329285	-0.2168329954147339	-0.5862500071525574	0.5541899800300598	0.5043100118637085	-0.03392999991774559	2178	2018/02/03 14:22:46.549
UPBOARD	IMU	2.286948967624994e+23	-1.475154191920347e-31	5.127225673760432e-18	2.4969571022766593e+38	-1.7950483198488633e-35	-399291936.0	1.1251775294623938e+23	9.687598038918362e+32	1.737174015747911e-10	1.7360846422545092e-38	48136	2018/02/03 14:22:46.583
UPBOARD	IMU	22.79558563232422	0.9889199733734131	-0.03911399841308594	0.006641999818384647	-0.34394198656082153	-0.15701699256896973	-0.6650000214576721	0.5504199862480164	0.49879997968673706	-0.05017000064253807	2178	2018/02/03 14:22:46.616
UPBOARD	IMU	22.79558563232422	0.9867059588432312	-0.03689999878406525	0.006641999818384647	-0.3663730025291443	-0.46357399225234985	-0.49000000953674316	0.5504199862480164	0.49879997968673706	-0.05017000064253807	2178	2018/02/03 14:22:46.650
UPBOARD	IMU	22.79558563232422	0.9852299690246582	-0.03394800052046776	0.0051659997552633286	0.02990799956023693	-0.3364650011062622	-0.44624999165534973	0.5504199862480164	0.49879997968673706	-0.05017000064253807	2178	2018/02/03 14:22:46.684
UPBOARD	IMU	22.79558563232422	0.9852299690246582	-0.037637997418642044	0.0051659997552633286	-0.10467799752950668	-0.27664899826049805	-0.29750001430511475	0.5417199730873108	0.49445000290870667	-0.047269999980926514	2178	2018/02/03 14:22:46.709
UPBOARD	IMU	22.801305770874023	0.9874439835548401	-0.03689999878406525	0.006641999818384647	-0.2916029989719391	-0.13458599150180817	-0.5512499809265137	0.5417199730873108	0.49445000290870667	-0.047269999980926514	2178	2018/02/03 14:22:46.758
UPBOARD	IMU	22.7974910736084	5.1269775195766665e-18	1.1196742889296729e-05	4.599183922098872e+26	4.4942152066109665e+23	8.483213860110278e-14	-5.886927430669452e-31	6.948135400364208e-10	1.7380447785464067e-38	0.0	2178	2018/02/03 14:22:46.779
UPBOARD	IMU	22.7974910736084	0.9852299690246582	-0.03542399778962135	0.007379999849945307	-0.23926399648189545	-0.5308669805526733	-0.39375001192092896	0.5469399690628052	0.5028600096702576	-0.041179999709129333	2178	2018/02/03 14:22:46.802
UPBOARD	IMU	22.79939842224121	0.9859679937362671	-0.03837599977850914	0.009593999944627285	-0.0373849980533123	-0.31403398513793945	-0.4637500047683716	0.5469399690628052	0.5028600096702576	-0.041179999709129333	2178	2018/02/03 14:22:46.856
UPBOARD	IMU	22.79939842224121	0.9815399646759033	-0.03911399841308594	-9.52994482749032e+32	5.600297159945532e-37	8.464258618003442e-14	95.49874877929688	5.9126162875178215e+28	2.150500948424786e+17	1.737149909347089e-38	2178	2018/02/03 14:22:46.892
UPBOARD	IMU	22.78605079650879	0.9881819486618042	-0.03911399841308594	0.005903999786823988	-0.13458599150180817	-0.4336659908294678	-0.612500011920929	0.5443300008773804	0.5028600096702576	-0.053939998149871826	2178	2018/02/03 14:22:46.914
UPBOARD	IMU	22.793678283691406	0.9844919443130493	-0.04280399903655052	0.005903999786823988	-0.26917198300361633	-0.261694997549057	-0.5425000190734863	0.5443300008773804	0.5028600096702576	-0.053939998149871826	2178	2018/02/03 14:22:46.947
UPBOARD	IMU	22.79939842224121	0.9815399646759033	-0.03911399841308594	0.006641999818384647	-0.2243099957704544	-0.3364650011062622	-0.23624999821186066	0.5443300008773804	0.5028600096702576	-0.053939998149871826	2178	2018/02/03 14:22:46.980
UPBOARD	IMU	22.7974910736084	0.9800639748573303	-0.03689999878406525	0.004427999723702669	-0.6205909848213196	-0.261694997549057	-0.5074999928474426	0.5443300008773804	0.5028600096702576	-0.053939998149871826	2178	2018/02/03 14:22:47.014
UPBOARD	IMU	22.7974910736084	0.9837539792060852	-0.03689999878406525	0.005903999786823988	-0.20187899470329285	-0.35141900181770325	-0.3762499988079071	0.5504199862480164	0.4993799924850464	-0.04089000076055527	2178	2018/02/03 14:22:47.050
UPBOARD	IMU	22.80702781677246	0.9844919443130493	-0.03911399841308594	0.006641999818384647	-0.0373849980533123	-0.42618900537490845	-0.3675000071525574	0.5504199862480164	0.4993799924850464	-0.04089000076055527	2178	2018/02/03 14:22:47.074
UPBOARD	IMU	22.79939842224121	0.9867059588432312	-0.04132799804210663	0.007379999849945307	-0.20935599505901337	1638699106304.0	-0.01166079193353653	12223.919921875	1.7371073098737734e-38	0.0	2178	2018/02/03 14:22:47.109
UPBOARD	IMU	22.78986358642578	0.9830159544944763	-0.034685999155044556	0.008855999447405338	-0.5757290124893188	-0.2841259837150574	-0.5337499976158142	0.5420100092887878	0.4985100030899048	-0.04262999817728996	2178	2018/02/03 14:22:47.143
UPBOARD	IMU	22.7974910736084	0.9852299690246582	-0.03616200014948845	0.008117999881505966	-0.5084359645843506	-0.2990799844264984	-0.42000001668930054	0.5420100092887878	0.4985100030899048	-0.04262999817728996	2178	2018/02/03 14:22:47.177
UPBOARD	IMU	22.791770935058594	0.9822779893875122	-0.03689999878406525	0.006641999818384647	-0.11963199824094772	-0.35141900181770325	-0.6825000047683716	-1.7791960260638007e-07	-12517180.0	1.7373629067136663e-38	2179	2018/02/03 14:22:47.210
UPBOARD	IMU	22.782236099243164	0.9837539792060852	-0.04058999940752983	0.005903999786823988	0.007476999890059233	-0.2916029989719391	-0.5862500071525574	0.5446199774742126	0.4959000051021576	-0.04292000085115433	2179	2018/02/03 14:22:47.261
UPBOARD	IMU	22.803213119506836	0.9837539792060852	-0.04132799804210663	0.005903999786823988	0.0747699961066246	-0.2168329954147339	-0.6037499904632568	0.5446199774742126	0.4959000051021576	-0.04292000085115433	2179	2018/02/03 14:22:47.272
UPBOARD	IMU	22.7974910736084	0.9852299690246582	-0.042065996676683426	0.006641999818384647	-0.19440199434757233	-0.4860049784183502	-0.3412500023841858	0.5446199774742126	0.4959000051021576	-0.04292000085115433	2179	2018/02/03 14:22:47.304
UPBOARD	IMU	22.803213119506836	0.9852299690246582	-0.04132799804210663	0.007379999849945307	-0.2990799844264984	-0.3364650011062622	-0.42000001668930054	0.5507100224494934	0.49792999029159546	-0.03886000066995621	2179	2018/02/03 14:22:47.337
UPBOARD	IMU	22.793678283691406	0.9852299690246582	-0.04132799804210663	0.007379999849945307	-0.2841259837150574	-0.2243099957704544	-0.27125000953674316	0.5507100224494934	0.49792999029159546	-0.03886000066995621	2179	2018/02/03 14:22:47.369
UPBOARD	IMU	22.7974910736084	0.9867059588432312	-0.03837599977850914	0.006641999818384647	-0.12710899114608765	-0.3813270032405853	-0.3149999976158142	0.5507100224494934	0.49792999029159546	-0.03886000066995621	2179	2018/02/03 14:22:47.401
UPBOARD	IMU	22.793678283691406	0.9822779893875122	-0.03689999878406525	0.006641999818384647	-0.20187899470329285	-0.47105100750923157	-0.21875	0.5483899712562561	0.49647998809814453	7.885137126789209e-34	2179	2018/02/03 14:22:47.463
UPBOARD	IMU	22.791770935058594	0.9867059588432312	-0.039851997047662735	0.010331999510526657	-0.27664899826049805	-0.3289879858493805	-0.4112499952316284	0.5483899712562561	0.49647998809814453	-0.04552999883890152	2179	2018/02/03 14:22:47.474
UPBOARD	IMU	22.79939842224121	0.9852299690246582	-0.037637997418642044	0.005903999786823988	-0.3289879858493805	-0.23926399648189545	-0.5425000190734863	0.5483899712562561	0.49647998809814453	-0.04552999883890152	2179	2018/02/03 14:22:47.505
UPBOARD	IMU	22.7974910736084	0.9852299690246582	-0.03911399841308594	0.008855999447405338	4.612166740577949e+26	8.452679338801297e-14	6.722326045392896e+15	-6.628433035332478e-16	9.874164062042353e-24	1.7370221109271425e-38	2179	2018/02/03 14:22:47.546
UPBOARD	IMU	22.79558563232422	0.9859679937362671	-0.03616200014948845	0.006641999818384647	-0.02243099920451641	-0.05233899876475334	-0.4112499952316284	0.551580011844635	0.49706000089645386	-0.04030999913811684	2179	2018/02/03 14:22:47.588
UPBOARD	IMU	22.78605079650879	0.9830159544944763	-0.032471999526023865	0.0036899999249726534	0.0747699961066246	-0.2168329954147339	-0.2887499928474426	0.551580011844635	0.49706000089645386	-0.04030999913811684	2179	2018/02/03 14:22:47.619
UPBOARD	IMU	22.793678283691406	0.9837539792060852	-0.03689999878406525	0.0051659997552633286	0.32151100039482117	-0.1121549978852272	-0.7875000238418579	0.5509999990463257	0.4985100030899048	-0.04349999874830246	2179	2018/02/03 14:22:47.652
UPBOARD	IMU	22.79939842224121	0.9874439835548401	-0.03616200014948845	0.006641999818384647	-0.11963199824094772	-0.4860049784183502	-0.42000001668930054	0.5509999990463257	0.4985100030899048	-0.04349999874830246	2179	2018/02/03 14:22:47.685
UPBOARD	IMU	22.801305770874023	0.9830159544944763	-0.039851997047662735	0.008117999881505966	-0.34394198656082153	-0.27664899826049805	-0.39375001192092896	0.5509999990463257	0.4985100030899048	-0.04349999874830246	2179	2018/02/03 14:22:47.720
UPBOARD	IMU	22.7974910736084	0.9830159544944763	-0.039851997047662735	0.004427999723702669	-0.24674099683761597	-0.3813270032405853	-0.45500001311302185	0.5472300052642822	0.5072100162506104	-0.043789997696876526	2179	2018/02/03 14:22:47.768
UPBOARD	IMU	22.782236099243164	0.9830159544944763	-0.04501799866557121	0.004427999723702669	-0.12710899114608765	-0.3738499879837036	-2.2461346270751714e-36	4.141808470594277e-17	1.7375334447367746e-38	0.0	2179	2018/02/03 14:22:47.780
UPBOARD	IMU	22.79939842224121	0.9852299690246582	-0.042065996676683426	0.009593999944627285	-0.05233899876475334	-0.34394198656082153	-0.3499999940395355	0.5472300052642822	0.5072100162506104	-0.043789997696876526	2179	2018/02/03 14:22:47.813
UPBOARD	IMU	22.7974910736084	0.9852299690246582	-0.03911399841308594	0.008117999881505966	-0.04486199840903282	-0.1121549978852272	-0.49000000953674316	0.5483899712562561	0.5016999840736389	-0.04465999826788902	2179	2018/02/03 14:22:47.847
UPBOARD	IMU	22.793678283691406	0.9889199733734131	-0.03837599977850914	0.007379999849945307	-0.3588959872722626	-0.31403398513793945	-0.3499999940395355	0.5483899712562561	9.04027152867658e+23	1.737661243156721e-38	2179	2018/02/03 14:22:47.882
UPBOARD	IMU	22.793678283691406	0.9830159544944763	-0.03542399778962135	0.005903999786823988	-0.38880398869514465	-0.2243099957704544	-0.5425000190734863	0.5483899712562561	0.5016999840736389	1.737661243156721e-38	2179	2018/02/03 14:22:47.915
UPBOARD	IMU	22.78605079650879	0.9844919443130493	-0.03689999878406525	0.006641999818384647	-0.2168329954147339	-0.2990799844264984	-0.5687500238418579	0.5495499968528748	0.49879997968673706	-0.05306999757885933	2179	2018/02/03 14:22:47.938
UPBOARD	IMU	22.7974910736084	0.9822779893875122	-0.03616200014948845	0.006641999818384647	0.02990799956023693	-0.4785279929637909	-0.699999988079071	0.5495499968528748	0.49879997968673706	-0.05306999757885933	2179	2018/02/03 14:22:47.972
UPBOARD	IMU	22.791770935058594	0.9852299690246582	-0.03099599853157997	0.0051659997552633286	0.05233899876475334	-0.3289879858493805	-0.6212499737739563	0.5495499968528748	0.49879997968673706	-0.05306999757885933	2179	2018/02/03 14:22:48.006
UPBOARD	IMU	22.801305770874023	0.9844919443130493	-0.039851997047662735	0.005903999786823988	-0.02243099920451641	-0.23178699612617493	-0.6737499833106995	0.5495499968528748	0.49879997968673706	-0.05306999757885933	2179	2018/02/03 14:22:48.039
UPBOARD	IMU	22.803213119506836	0.9852299690246582	-0.03911399841308594	0.010331999510526657	-0.08224699646234512	-0.16449399292469025	-0.5687500238418579	0.5440399646759033	0.4982199966907501	-0.03711999952793121	2179	2018/02/03 14:22:48.072
UPBOARD	IMU	22.793678283691406	0.9859679937362671	-0.039851997047662735	0.007379999849945307	-0.3364650011062622	-0.20187899470329285	-0.29750001430511475	0.5440399646759033	0.4982199966907501	-0.03711999952793121	2179	2018/02/03 14:22:48.106
UPBOARD	IMU	22.79939842224121	0.9852299690246582	-0.03837599977850914	0.007379999849945307	-0.0747699961066246	-0.17197099328041077	-0.21875	0.5440399646759033	0.4982199966907501	-0.03711999952793121	2179	2018/02/03 14:22:48.130
UPBOARD	IMU	22.78986358642578	0.9852299690246582	-0.04280399903655052	0.004427999723702669	-0.10467799752950668	-0.05981599912047386	-0.33250001072883606	0.5495499968528748	0.506339967250824	-0.05509999766945839	2179	2018/02/03 14:22:48.164
UPBOARD	IMU	22.801305770874023	0.9844919443130493	-0.03911399841308594	0.004427999723702669	-0.1794479936361313	-0.47105100750923157	-0.33250001072883606	0.5495499968528748	0.506339967250824	-0.05509999766945839	2180	2018/02/03 14:22:48.197
UPBOARD	IMU	22.79939842224121	0.9844919443130493	-0.03837599977850914	0.005903999786823988	-0.32151100039482117	-0.38880398869514465	-0.7175000309944153	0.5495499968528748	0.506339967250824	-0.05509999766945839	2180	2018/02/03 14:22:48.231
UPBOARD	IMU	22.803213119506836	0.9837539792060852	-0.03542399778962135	0.008117999881505966	-0.6205909848213196	-0.2916029989719391	-0.42000001668930054	0.5530300140380859	0.5022799968719482	-0.04495000094175339	2180	2018/02/03 14:22:48.276
UPBOARD	IMU	22.791770935058594	0.9852299690246582	-0.034685999155044556	0.005903999786823988	-0.16449399292469025	-0.3738499879837036	-0.3675000071525574	0.5530300140380859	0.5022799968719482	-0.04495000094175339	2180	2018/02/03 14:22:48.310
UPBOARD	IMU	22.78986358642578	0.9859679937362671	-0.030257998034358025	0.005903999786823988	-0.15701699256896973	-0.34394198656082153	-0.45500001311302185	0.5530300140380859	0.5022799968719482	-0.04495000094175339	2180	2018/02/03 14:22:48.344
UPBOARD	IMU	22.79939842224121	0.9830159544944763	-0.03689999878406525	0.006641999818384647	-0.2841259837150574	-0.16449399292469025	-0.6299999952316284	0.5446199774742126	0.5014100074768066	-0.05045999959111214	2180	2018/02/03 14:22:48.378
UPBOARD	IMU	22.79939842224121	0.9844919443130493	-0.034685999155044556	0.005903999786823988	-0.17197099328041077	-0.3813270032405853	-0.5774999856948853	0.5446199774742126	0.5014100074768066	-0.05045999959111214	2180	2018/02/03 14:22:48.401
UPBOARD	IMU	22.793678283691406	0.9844919443130493	-0.039851997047662735	0.006641999818384647	-0.15701699256896973	-0.3065569996833801	-0.5600000023841858	0.5446199774742126	0.5014100074768066	-0.05045999959111214	2180	2018/02/03 14:22:48.435
UPBOARD	IMU	22.801305770874023	0.9852299690246582	-0.03689999878406525	0.0051659997552633286	-0.23926399648189545	-0.19440199434757233	-0.5425000190734863	0.5486800074577332	0.5031499862670898	-0.04698000103235245	2180	2018/02/03 14:22:48.502
UPBOARD	IMU	22.78795623779297	0.9830159544944763	-0.039851997047662735	0.005903999786823988	-0.2168329954147339	-0.3813270032405853	-0.22750000655651093	0.5486800074577332	0.5031499862670898	-0.04698000103235245	2180	2018/02/03 14:22:48.536
UPBOARD	IMU	22.7974910736084	0.9815399646759033	-0.039851997047662735	0.004427999723702669	0.0	-0.24674099683761597	-0.5249999761581421	0.5486800074577332	0.500249981880188	-0.04842999950051308	2180	2018/02/03 14:22:48.570
UPBOARD	IMU	22.78795623779297	5.83009525433108e-39	-23.640727996826172	-9.510765267719166e+32	102310543360.0	-8.652823596522197e-11	25051790.0	8.810565058135578e+20	-2.29908180984814e-33	1.7382151764396686e-38	2180	2018/02/03 14:22:48.593
UPBOARD	IMU	22.79558563232422	0.9844919443130493	-0.039851997047662735	0.007379999849945307	-0.27664899826049805	-0.34394198656082153	-0.4112499952316284	0.5486800074577332	0.500249981880188	-0.04842999950051308	2180	2018/02/03 14:22:48.627
UPBOARD	IMU	22.803213119506836	0.9859679937362671	-0.03616200014948845	0.007379999849945307	-0.20935599505901337	-0.5682519674301147	-0.5687500238418579	0.5486800074577332	0.500249981880188	-0.04842999950051308	2180	2018/02/03 14:22:48.660
UPBOARD	IMU	22.793678283691406	0.9867059588432312	-0.03320999816060066	0.006641999818384647	-0.38880398869514465	-0.17197099328041077	-0.24500000476837158	0.5504199862480164	0.5011199712753296	-0.047849997878074646	2180	2018/02/03 14:22:48.682
UPBOARD	IMU	22.79939842224121	0.9859679937362671	-0.03616200014948845	0.006641999818384647	-0.27664899826049805	-0.2916029989719391	-0.3499999940395355	0.5504199862480164	0.5011199712753296	-0.047849997878074646	2180	2018/02/03 14:22:48.705
UPBOARD	IMU	22.801305770874023	0.9859679937362671	-0.03542399778962135	0.005903999786823988	-0.3289879858493805	-0.261694997549057	-0.4987500011920929	0.5504199862480164	0.5011199712753296	-0.047849997878074646	2180	2018/02/03 14:22:48.739
UPBOARD	IMU	22.793678283691406	0.9874439835548401	-0.03542399778962135	0.007379999849945307	0.02990799956023693	-0.34394198656082153	-0.4724999964237213	0.5492600202560425	0.504889965057373	-0.04639999940991402	2180	2018/02/03 14:22:48.773
UPBOARD	IMU	22.78986358642578	0.9808019399642944	-0.03616200014948845	0.0036899999249726534	-0.05233899876475334	-0.5757290124893188	-0.22750000655651093	0.5492600202560425	0.504889965057373	-0.04639999940991402	2180	2018/02/03 14:22:48.805
UPBOARD	IMU	22.791770935058594	0.9830159544944763	-0.03911399841308594	0.005903999786823988	-0.1420629918575287	-0.15701699256896973	-0.7175000309944153	0.5492600202560425	0.504889965057373	-0.04639999940991402	2180	2018/02/03 14:22:48.832
UPBOARD	IMU	22.79558563232422	0.9844919443130493	-0.04132799804210663	0.006641999818384647	-0.014953999780118465	-0.2990799844264984	-0.612500011920929	0.5559300184249878	0.504889965057373	-0.05220000073313713	2180	2018/02/03 14:22:48.866
UPBOARD	IMU	22.78986358642578	0.9874439835548401	-0.044280000030994415	0.006641999818384647	-0.2243099957704544	-0.38880398869514465	-0.08749999850988388	0.5559300184249878	0.504889965057373	-0.05220000073313713	2180	2018/02/03 14:22:48.899
UPBOARD	IMU	22.79558563232422	0.9837539792060852	-0.04501799866557121	0.006641999818384647	-0.04486199840903282	-0.3663730025291443	-0.42875000834465027	0.5559300184249878	0.504889965057373	-0.05220000073313713	2180	2018/02/03 14:22:48.929
UPBOARD	IMU	22.793678283691406	0.9859679937362671	-0.039851997047662735	0.005903999786823988	-0.3364650011062622	-0.23178699612617493	-0.4724999964237213	0.5478100180625916	0.5022799968719482	-0.04436999931931496	2180	2018/02/03 14:22:48.963
UPBOARD	IMU	22.791770935058594	0.9859679937362671	-0.039851997047662735	0.006641999818384647	-0.13458599150180817	-0.1420629918575287	-0.45500001311302185	0.5478100180625916	0.5022799968719482	-0.04436999931931496	2180	2018/02/03 14:22:49.018
UPBOARD	IMU	22.79558563232422	0.9852299690246582	-0.03616200014948845	0.0051659997552633286	-0.1869249939918518	-0.27664899826049805	-0.5074999928474426	0.5478100180625916	0.5022799968719482	-0.04436999931931496	2180	2018/02/03 14:22:49.041
UPBOARD	IMU	22.801305770874023	0.9867059588432312	-0.03542399778962135	0.005903999786823988	-0.3289879858493805	-0.4560970067977905	-0.38499999046325684	0.5478100180625916	0.5022799968719482	-0.04436999931931496	2180	2018/02/03 14:22:49.074
UPBOARD	IMU	22.801305770874023	0.9874439835548401	-0.03616200014948845	0.006641999818384647	-0.1869249939918518	-0.19440199434757233	-0.3062500059604645	0.5489699840545654	0.49647998809814453	-0.05886999890208244	2180	2018/02/03 14:22:49.107
UPBOARD	IMU	-3.6169761849028486e+24	415736258363392.0	1.5232552601917097e+34	-2.8767496774608244e+25	-1.8788529943091204e-29	100216336.0	-1.6182476827847266e-19	-6.785432675807113e-13	1.739749177868565e-38	0.0	2180	2018/02/03 14:22:49.140
UPBOARD	IMU	22.791770935058594	0.9844919443130493	-0.03616200014948845	0.0051659997552633286	0.014953999780118465	-0.19440199434757233	-0.48124998807907104	0.5489699840545654	0.49647998809814453	-0.05886999890208244	2180	2018/02/03 14:22:49.177
UPBOARD	IMU	22.79558563232422	0.9867059588432312	-0.03689999878406525	0.007379999849945307	-0.1121549978852272	-0.19440199434757233	-0.4112499952316284	0.551580011844635	0.5031499862670898	-0.04030999913811684	2180	2018/02/03 14:22:49.201
UPBOARD	IMU	22.793678283691406	0.9844919443130493	-7.316419060307736e+27	-3.9798822589534323e-20	4.108194828350327e-17	8.467578987156679e-14	6.722326045392896e+15	2.3651039389835603e+29	9.874631067698243e-24	1.7370221109271425e-38	2181	2018/02/03 14:22:49.234
UPBOARD	IMU	22.782236099243164	0.9874439835548401	-0.04132799804210663	0.005903999786823988	-0.11963199824094772	-0.261694997549057	-0.6387500166893005	0.551580011844635	0.5031499862670898	-0.04030999913811684	2181	2018/02/03 14:22:49.267
UPBOARD	IMU	22.793678283691406	0.9867059588432312	-0.037637997418642044	0.008117999881505966	-0.23178699612617493	-0.3065569996833801	-0.4637500047683716	0.5454899668693542	0.5008299946784973	-0.05277999863028526	2181	2018/02/03 14:22:49.301
UPBOARD	IMU	22.78605079650879	0.9800639748573303	-0.04280399903655052	0.0051659997552633286	-0.15701699256896973	-0.31403398513793945	-0.49000000953674316	0.5454899668693542	0.5008299946784973	-0.05277999863028526	2181	2018/02/03 14:22:49.334
UPBOARD	IMU	22.78986358642578	0.9867059588432312	-0.04132799804210663	0.005903999786823988	-0.3364650011062622	-0.24674099683761597	-0.4637500047683716	0.5454899668693542	0.5008299946784973	-0.05277999863028526	2181	2018/02/03 14:22:49.367
UPBOARD	IMU	22.7974910736084	0.9867059588432312	-0.03689999878406525	0.0036899999249726534	-0.2990799844264984	-0.2841259837150574	-0.42875000834465027	0.5431699752807617	0.4985100030899048	-0.04408000037074089	2181	2018/02/03 14:22:49.400
UPBOARD	IMU	22.78986358642578	0.9874439835548401	-0.03837599977850914	0.005903999786823988	-0.2542179822921753	-0.42618900537490845	-0.48124998807907104	0.5431699752807617	0.4985100030899048	-0.04408000037074089	2181	2018/02/03 14:22:49.434
UPBOARD	IMU	22.801305770874023	0.9874439835548401	-0.03689999878406525	0.005903999786823988	7.703608227686565e-26	1.3876524374012433e-09	-1.779228142595457e-07	0.002914383076131344	1.73757604421009e-38	0.0	2181	2018/02/03 14:22:49.458
UPBOARD	IMU	22.80512046813965	0.9837539792060852	-0.039851997047662735	0.0051659997552633286	-0.16449399292469025	-0.4411430060863495	-0.2800000011920929	0.5475199818611145	0.4973500072956085	-0.0405999980866909	2181	2018/02/03 14:22:49.490
UPBOARD	IMU	22.791770935058594	0.9859679937362671	-0.034685999155044556	0.005903999786823988	-0.4112350046634674	-0.04486199840903282	-0.38499999046325684	0.5475199818611145	0.4973500072956085	-0.0405999980866909	2181	2018/02/03 14:22:49.521
UPBOARD	IMU	22.7974910736084	0.9815399646759033	-0.03689999878406525	0.005903999786823988	0.05981599912047386	-0.31403398513793945	6112.18994140625	-4.242107018307198e-14	1.7370865856847217e-10	1.737064710400458e-38	2181	2018/02/03 14:22:49.552
UPBOARD	IMU	22.803213119506836	0.9844919443130493	-0.03616200014948845	0.0051659997552633286	-0.2168329954147339	-0.20935599505901337	-0.32374998927116394	0.5486800074577332	0.5028600096702576	-0.03711999952793121	2181	2018/02/03 14:22:49.594
UPBOARD	IMU	22.79558563232422	0.9852299690246582	-0.04058999940752983	0.0051659997552633286	0.09720099717378616	-0.24674099683761597	-0.4025000035762787	0.5486800074577332	0.5028600096702576	-0.03711999952793121	2181	2018/02/03 14:22:49.625
UPBOARD	IMU	22.801305770874023	0.9852299690246582	-0.03689999878406525	0.007379999849945307	-0.06729299575090408	-0.4785279929637909	-0.7175000309944153	0.5486800074577332	0.5028600096702576	-0.03711999952793121	2181	2018/02/03 14:22:49.666
UPBOARD	IMU	22.79558563232422	0.9852299690246582	-0.04354199767112732	0.0051659997552633286	-0.13458599150180817	-0.4486199915409088	-0.4375	0.545199990272522	0.5011199712753296	-0.031610000878572464	2181	2018/02/03 14:22:49.698
UPBOARD	IMU	22.79558563232422	0.9808019399642944	-0.04354199767112732	0.0036899999249726534	-0.38880398869514465	-0.3364650011062622	-0.4724999964237213	0.545199990272522	0.5011199712753296	-0.031610000878572464	2181	2018/02/03 14:22:49.729
UPBOARD	IMU	22.801305770874023	0.9874439835548401	-0.03837599977850914	0.005903999786823988	-0.5682519674301147	-0.19440199434757233	-0.3412500023841858	0.545199990272522	0.5011199712753296	-0.031610000878572464	2181	2018/02/03 14:22:49.761
UPBOARD	IMU	22.79558563232422	0.9852299690246582	-0.03689999878406525	0.007379999849945307	-0.10467799752950668	-0.08224699646234512	-0.5774999856948853	0.545199990272522	1.7357410438710567e-38	0.0	2181	2018/02/03 14:22:49.792
UPBOARD	IMU	22.77651596069336	0.9859679937362671	-0.037637997418642044	0.007379999849945307	-0.2168329954147339	-0.2990799844264984	-0.6037499904632568	0.5478100180625916	0.5098199844360352	-0.04030999913811684	2181	2018/02/03 14:22:49.824
UPBOARD	IMU	22.79558563232422	0.9844919443130493	-0.03542399778962135	0.007379999849945307	-0.0747699961066246	-0.08224699646234512	-0.48124998807907104	0.5478100180625916	0.5098199844360352	-0.04030999913811684	2181	2018/02/03 14:22:49.845
UPBOARD	IMU	22.78986358642578	0.9844919443130493	-0.03837599977850914	0.006641999818384647	-0.08972399681806564	-0.15701699256896973	-0.4724999964237213	0.5478100180625916	0.5098199844360352	-0.04030999913811684	2181	2018/02/03 14:22:49.877
UPBOARD	IMU	22.791770935058594	0.9852299690246582	-0.03837599977850914	3.3737271850167173e+18	3.380540476456001e-13	-418227574276096.0	390661.09375	-1.779274043656187e-07	-2.984328269958496	1.7358715047580854e-38	2181	2018/02/03 14:22:49.910
UPBOARD	IMU	22.803213119506836	0.9859679937362671	-0.037637997418642044	0.006641999818384647	0.02243099920451641	-0.2243099957704544	-0.21875	0.5480999946594238	0.4985100030899048	-0.03248000144958496	2181	2018/02/03 14:22:49.943
UPBOARD	IMU	22.7974910736084	0.9881819486618042	-0.03689999878406525	0.005903999786823988	-0.12710899114608765	-0.3364650011062622	-0.42875000834465027	0.5480999946594238	0.4985100030899048	-0.03248000144958496	2181	2018/02/03 14:22:49.975
UPBOARD	IMU	22.78795623779297	0.9867059588432312	-0.039851997047662735	0.0051659997552633286	0.05233899876475334	-0.27664899826049805	-0.5600000023841858	0.5480999946594238	0.5031499862670898	-0.0516199991106987	2181	2018/02/03 14:22:50.007
UPBOARD	IMU	22.793678283691406	0.9867059588432312	-0.03911399841308594	0.005903999786823988	-0.1794479936361313	-0.2542179822921753	-0.48124998807907104	0.5480999946594238	0.5031499862670898	-0.0516199991106987	2181	2018/02/03 14:22:50.040
UPBOARD	IMU	22.7974910736084	0.9859679937362671	-0.04132799804210663	0.005903999786823988	0.02243099920451641	-0.2841259837150574	-0.5512499809265137	0.5480999946594238	0.5031499862670898	-0.0516199991106987	2181	2018/02/03 14:22:50.072
UPBOARD	IMU	22.80702781677246	0.9800639748573303	-0.042065996676683426	0.007379999849945307	-0.35141900181770325	-0.17197099328041077	-0.10500000417232513	0.5480999946594238	0.5031499862670898	-0.0516199991106987	2181	2018/02/03 14:22:50.105
UPBOARD	IMU	22.78795623779297	0.9830159544944763	-0.03689999878406525	0.007379999849945307	-0.5308669805526733	99650184.0	1.4096925485115155e+22	12224.0341796875	1.7380873780197222e-38	0.0	2181	2018/02/03 14:22:50.128
UPBOARD	IMU	22.793678283691406	0.9837539792060852	-0.03542399778962135	0.005903999786823988	-0.1121549978852272	-0.3065569996833801	-0.7087500095367432	0.5489699840545654	0.500540018081665	-0.04755999892950058	2181	2018/02/03 14:22:50.162
UPBOARD	IMU	22.79939842224121	0.9889199733734131	-0.03689999878406525	0.0051659997552633286	-0.0373849980533123	-0.3813270032405853	-0.21875	0.5489699840545654	0.500540018081665	-0.04755999892950058	2181	2018/02/03 14:22:50.195
UPBOARD	IMU	22.791770935058594	0.9859679937362671	-0.03689999878406525	0.008855999447405338	-0.34394198656082153	-0.15701699256896973	-0.5687500238418579	-6.796983765752773e-13	1.4032116290921905e-37	1.7359994433078782e-38	2182	2018/02/03 14:22:50.229
UPBOARD	IMU	22.79558563232422	0.9859679937362671	-0.04132799804210663	0.005903999786823988	-0.20187899470329285	-0.3738499879837036	-0.44624999165534973	0.5559300184249878	1.4032116290921905e-37	1.7359994433078782e-38	2182	2018/02/03 14:22:50.262
UPBOARD	IMU	22.79558563232422	0.9830159544944763	-0.03616200014948845	0.006641999818384647	-0.5383439660072327	-0.32151100039482117	-0.42000001668930054	0.5559300184249878	0.4976399838924408	-0.03334999829530716	2182	2018/02/03 14:22:50.295
UPBOARD	IMU	22.7974910736084	0.9859679937362671	-0.037637997418642044	0.008117999881505966	-0.38880398869514465	-0.46357399225234985	-0.4724999964237213	0.5414299964904785	0.5031499862670898	-0.04668999835848808	2182	2018/02/03 14:22:50.329
UPBOARD	IMU	22.812747955322266	0.9837539792060852	-0.03320999816060066	0.006641999818384647	0.02990799956023693	-0.5159130096435547	-0.4025000035762787	0.5414299964904785	0.5031499862670898	-0.04668999835848808	2182	2018/02/03 14:22:50.354
UPBOARD	IMU	22.7974910736084	0.9844919443130493	-0.03837599977850914	0.006641999818384647	0.2990799844264984	-0.31403398513793945	-0.7175000309944153	0.5414299964904785	0.5031499862670898	-0.04668999835848808	2182	2018/02/03 14:22:50.389
UPBOARD	IMU	22.801305770874023	0.9837539792060852	-0.03911399841308594	0.005903999786823988	-0.12710899114608765	-0.08972399681806564	-0.4637500047683716	0.5469399690628052	0.5022799968719482	-0.03508999943733215	2182	2018/02/03 14:22:50.438
UPBOARD	IMU	22.801305770874023	0.9859679937362671	-0.04132799804210663	0.006641999818384647	-0.4560970067977905	-0.23926399648189545	-0.612500011920929	0.5469399690628052	0.5022799968719482	-2.70323522659557e-35	2182	2018/02/03 14:22:50.472
UPBOARD	IMU	22.793678283691406	0.9844919443130493	-0.039851997047662735	0.008117999881505966	-0.6056370139122009	-0.24674099683761597	-0.22750000655651093	0.5469399690628052	0.5022799968719482	-0.03508999943733215	2182	2018/02/03 14:22:50.496
UPBOARD	IMU	22.793678283691406	0.9830159544944763	-0.037637997418642044	0.0051659997552633286	-0.41871199011802673	-0.27664899826049805	-0.49000000953674316	0.549839973449707	0.5040199756622314	-0.03943999856710434	2182	2018/02/03 14:22:50.531
UPBOARD	IMU	22.791770935058594	0.9837539792060852	-0.03911399841308594	0.008117999881505966	0.12710899114608765	-0.23178699612617493	-0.4987500011920929	0.549839973449707	0.5040199756622314	-0.03943999856710434	2182	2018/02/03 14:22:50.570
UPBOARD	IMU	22.784143447875977	0.9852299690246582	-0.03911399841308594	0.0051659997552633286	-0.08972399681806564	-0.08972399681806564	-0.3675000071525574	0.549839973449707	0.5040199756622314	-0.03943999856710434	2182	2018/02/03 14:22:50.593
UPBOARD	IMU	22.79558563232422	0.9874439835548401	-0.04058999940752983	0.005903999786823988	-0.2168329954147339	-0.32151100039482117	-0.5862500071525574	0.5469399690628052	0.4990899860858917	-0.03943999856710434	2182	2018/02/03 14:22:50.626
UPBOARD	IMU	22.7974910736084	0.9837539792060852	-0.037637997418642044	0.005903999786823988	-0.5159130096435547	-0.12710899114608765	-0.5249999761581421	0.5469399690628052	0.4990899860858917	-0.03943999856710434	2182	2018/02/03 14:22:50.659
UPBOARD	IMU	22.78605079650879	0.9874439835548401	-0.03542399778962135	0.007379999849945307	-0.4486199915409088	-0.23178699612617493	-0.5425000190734863	0.5469399690628052	0.4990899860858917	-0.03943999856710434	2182	2018/02/03 14:22:50.699
UPBOARD	IMU	22.801305770874023	0.9867059588432312	-0.03320999816060066	0.004427999723702669	-0.12710899114608765	-0.4112350046634674	-0.4025000035762787	0.5518699884414673	0.5025699734687805	-0.04262999817728996	2182	2018/02/03 14:22:50.727
UPBOARD	IMU	22.79939842224121	0.9844919443130493	-0.03542399778962135	0.004427999723702669	0.24674099683761597	-0.35141900181770325	-0.5074999928474426	0.5518699884414673	0.5025699734687805	-0.04262999817728996	2182	2018/02/03 14:22:50.762
UPBOARD	IMU	22.7974910736084	0.9844919443130493	-0.039851997047662735	0.005903999786823988	0.10467799752950668	-0.31403398513793945	-0.49000000953674316	0.5518699884414673	0.5025699734687805	-0.04262999817728996	2182	2018/02/03 14:22:50.787
UPBOARD	IMU	22.79939842224121	0.9844919443130493	-0.037637997418642044	0.006641999818384647	-0.17197099328041077	-0.09720099717378616	-0.7262499928474426	0.5478100180625916	0.4982199966907501	-0.032189998775720596	2182	2018/02/03 14:22:50.858
UPBOARD	IMU	5.829313679103668e-34	-4.4583629232874955e-08	5.126905554863374e-18	2.2709692550749053e+26	-4.286017614947287e+17	4.289868310826189e+17	97845.1171875	-2.780111474365299e-09	-4.240972671784235e-14	1.73582890528477e-38	41992	2018/02/03 14:22:50.881
UPBOARD	IMU	22.793678283691406	0.9844919443130493	-0.034685999155044556	0.005903999786823988	0.06729299575090408	-0.32151100039482117	-0.612500011920929	0.5478100180625916	0.4982199966907501	-0.032189998775720596	2182	2018/02/03 14:22:50.915
UPBOARD	IMU	203122880.0	5.830061623167936e-39	415892085145600.0	-2.1139413278077747e+17	5.6080587971071345e+22	-9.099124144995585e-05	1602653952.0	5.638778750885354e+22	51271393280.0	1.7366385755374568e-38	2182	2018/02/03 14:22:50.949
UPBOARD	IMU	22.7974910736084	0.9844919443130493	-0.04132799804210663	0.005903999786823988	-0.23178699612617493	-0.49348199367523193	-0.4637500047683716	0.5492600202560425	0.5008299946784973	-0.037700001150369644	2182	2018/02/03 14:22:50.982
UPBOARD	IMU	22.791770935058594	0.9859679937362671	-0.03837599977850914	0.004427999723702669	-0.4411430060863495	-0.34394198656082153	-0.6037499904632568	0.5492600202560425	0.5008299946784973	-0.037700001150369644	2182	2018/02/03 14:22:51.015
UPBOARD	IMU	22.7974910736084	0.9867059588432312	-0.04501799866557121	0.007379999849945307	-0.6056370139122009	-0.4037579894065857	-0.7262499928474426	0.5460699796676636	0.5016999840736389	-0.04002000018954277	2182	2018/02/03 14:22:51.049
UPBOARD	IMU	22.79558563232422	0.9852299690246582	-0.03837599977850914	0.004427999723702669	-0.20187899470329285	-0.1794479936361313	-0.3762499988079071	0.5460699796676636	0.5016999840736389	-0.04002000018954277	2182	2018/02/03 14:22:51.072
UPBOARD	IMU	22.79939842224121	0.9837539792060852	-0.03616200014948845	0.005903999786823988	0.08224699646234512	-0.20935599505901337	-0.6037499904632568	0.5460699796676636	0.5016999840736389	-0.04002000018954277	2182	2018/02/03 14:22:51.127
UPBOARD	IMU	22.7974910736084	0.9859679937362671	1.1202372661500704e-05	-4.017430442649658e-20	4.288711418435338e+17	5.172254077585369e-18	9.238140500160188e+26	-7.115389166756358e-07	1.736340239094402e-38	0.0	2182	2018/02/03 14:22:51.140
UPBOARD	IMU	22.7974910736084	0.9830159544944763	-0.04058999940752983	0.0051659997552633286	-0.11963199824094772	-0.26917198300361633	-0.5687500238418579	0.5402699708938599	0.5022799968719482	-0.035670001059770584	2182	2018/02/03 14:22:51.173
UPBOARD	IMU	22.79558563232422	0.9852299690246582	-0.03689999878406525	0.006641999818384647	-0.2168329954147339	-0.09720099717378616	-0.32374998927116394	0.5402699708938599	0.5022799968719482	-0.035670001059770584	2183	2018/02/03 14:22:51.225
UPBOARD	IMU	22.79939842224121	0.9822779893875122	-0.03542399778962135	0.006641999818384647	-0.05981599912047386	-0.3065569996833801	-0.6299999952316284	0.5483899712562561	0.5051800012588501	-0.03248000144958496	2183	2018/02/03 14:22:51.250
UPBOARD	IMU	22.78986358642578	0.9859679937362671	-0.03689999878406525	0.007379999849945307	1523.1724853515625	8.078479152975002e-20	1565808.625	2.479949831208712e+35	-2.9844558238983154	1.7358715047580854e-38	2183	2018/02/03 14:22:51.284
UPBOARD	IMU	22.803213119506836	0.9815399646759033	-0.03689999878406525	0.006641999818384647	-0.0373849980533123	-0.46357399225234985	-0.4112499952316284	0.5483899712562561	0.5051800012588501	-0.03248000144958496	2183	2018/02/03 14:22:51.317
UPBOARD	IMU	22.78795623779297	0.9874439835548401	-0.04280399903655052	0.004427999723702669	1.816910982131958	-0.3813270032405853	-0.612500011920929	0.5521599650382996	0.5054699778556824	-0.03392999991774559	2183	2018/02/03 14:22:51.351
UPBOARD	IMU	22.79558563232422	0.9830159544944763	-0.03616200014948845	0.006641999818384647	-0.5458210110664368	-0.4112350046634674	-0.6474999785423279	0.5521599650382996	0.5054699778556824	-0.03392999991774559	2183	2018/02/03 14:22:51.384
UPBOARD	IMU	22.803213119506836	0.9844919443130493	-0.03689999878406525	0.006641999818384647	-0.38880398869514465	-0.19440199434757233	-0.5600000023841858	0.5521599650382996	0.5054699778556824	-0.03392999991774559	2183	2018/02/03 14:22:51.408
UPBOARD	IMU	22.7974910736084	0.9874439835548401	-0.03911399841308594	0.006641999818384647	-0.24674099683761597	-0.1420629918575287	-0.39375001192092896	0.5480999946594238	0.5031499862670898	-0.03711999952793121	2183	2018/02/03 14:22:51.441
UPBOARD	IMU	22.78986358642578	0.9867059588432312	-0.03837599977850914	0.0051659997552633286	-0.04486199840903282	-0.3289879858493805	2.3650608710012365e+29	4.141720458577101e-17	1.7365533765908258e-38	0.0	2183	2018/02/03 14:22:51.475
UPBOARD	IMU	22.7974910736084	0.9867059588432312	-0.04058999940752983	0.005903999786823988	-0.02990799956023693	-0.1869249939918518	-0.42000001668930054	0.5480999946594238	0.5031499862670898	-0.03711999952793121	2183	2018/02/03 14:22:51.509
UPBOARD	IMU	22.793678283691406	0.9859679937362671	-0.03689999878406525	0.0051659997552633286	-0.17197099328041077	-0.3065569996833801	-0.612500011920929	0.5480999946594238	0.5031499862670898	-0.03711999952793121	2183	2018/02/03 14:22:51.543
UPBOARD	IMU	22.791770935058594	0.9830159544944763	-0.03911399841308594	0.0051659997552633286	-0.31403398513793945	-0.27664899826049805	-0.6299999952316284	0.5440399646759033	0.5086600184440613	-0.03886000066995621	2183	2018/02/03 14:22:51.576
UPBOARD	IMU	22.79939842224121	0.9859679937362671	-0.03689999878406525	0.008855999447405338	-0.5383439660072327	-0.4486199915409088	-0.24500000476837158	0.5440399646759033	-1.6965090085790252e-13	1.7368089734307187e-38	2183	2018/02/03 14:22:51.600
UPBOARD	IMU	22.7974910736084	0.9881819486618042	-0.03911399841308594	0.0051659997552633286	-0.4112350046634674	-0.4486199915409088	-0.7350000143051147	0.5440399646759033	0.5086600184440613	-0.03886000066995621	2183	2018/02/03 14:22:51.633
UPBOARD	IMU	22.7974910736084	0.9867059588432312	-0.03837599977850914	0.0051659997552633286	-0.04486199840903282	-0.0747699961066246	-0.4987500011920929	0.5533199906349182	0.5022799968719482	-0.04958999902009964	2183	2018/02/03 14:22:51.665
UPBOARD	IMU	22.791770935058594	0.9852299690246582	-0.039851997047662735	0.007379999849945307	0.014953999780118465	-0.2542179822921753	-0.6650000214576721	0.5533199906349182	0.5022799968719482	-0.04958999902009964	2183	2018/02/03 14:22:51.697
UPBOARD	IMU	22.79939842224121	0.9844919443130493	-0.04058999940752983	0.0051659997552633286	-0.11963199824094772	-0.05981599912047386	-0.3412500023841858	0.5533199906349182	0.5022799968719482	-0.04958999902009964	2183	2018/02/03 14:22:51.729
UPBOARD	IMU	22.79939842224121	0.9852299690246582	-0.03911399841308594	0.007379999849945307	-0.3738499879837036	-0.24674099683761597	-0.7962499856948853	0.545199990272522	0.5057600140571594	-0.04668999835848808	2183	2018/02/03 14:22:51.781
UPBOARD	IMU	22.801305770874023	0.9852299690246582	-0.037637997418642044	0.005903999786823988	-0.3738499879837036	-0.014953999780118465	-0.6737499833106995	0.545199990272522	0.5057600140571594	-0.04668999835848808	2183	2018/02/03 14:22:51.812
UPBOARD	IMU	22.7974910736084	0.9844919443130493	-0.032471999526023865	0.006641999818384647	-0.2916029989719391	-0.2841259837150574	-0.12250000238418579	0.545199990272522	0.5057600140571594	-0.04668999835848808	2183	2018/02/03 14:22:51.823
UPBOARD	IMU	22.80512046813965	0.9859679937362671	-0.03616200014948845	0.005903999786823988	0.08972399681806564	-0.34394198656082153	-0.5862500071525574	0.5504199862480164	0.5037299990653992	-0.04958999902009964	2183	2018/02/03 14:22:51.875
UPBOARD	IMU	22.791770935058594	0.9859679937362671	-0.03911399841308594	0.005903999786823988	0.02243099920451641	-0.3289879858493805	-0.5862500071525574	0.5504199862480164	0.5037299990653992	-0.04958999902009964	2183	2018/02/03 14:22:51.906
UPBOARD	IMU	22.803213119506836	0.9837539792060852	-0.04354199767112732	0.006641999818384647	-0.20187899470329285	-0.16449399292469025	-0.27125000953674316	0.5504199862480164	0.5037299990653992	-0.04958999902009964	2183	2018/02/03 14:22:51.937
UPBOARD	IMU	22.7974910736084	0.9867059588432312	-0.04058999940752983	0.0051659997552633286	-0.6205909848213196	-0.23926399648189545	-0.4112499952316284	0.5527399778366089	0.5034400224685669	-0.04552999883890152	2183	2018/02/03 14:22:51.968
UPBOARD	IMU	22.80893325805664	0.9844919443130493	-0.037637997418642044	0.004427999723702669	-0.4112350046634674	-0.19440199434757233	-0.4637500047683716	0.5527399778366089	0.5034400224685669	-0.04552999883890152	2183	2018/02/03 14:22:51.999
UPBOARD	IMU	22.78795623779297	0.9844919443130493	-0.03616200014948845	0.008117999881505966	0.007476999890059233	-0.3738499879837036	-0.026250001043081284	0.5527399778366089	0.5034400224685669	-0.04552999883890152	2183	2018/02/03 14:22:52.040
UPBOARD	IMU	22.793678283691406	0.9889199733734131	-0.04058999940752983	0.0051659997552633286	0.0373849980533123	-0.1869249939918518	-0.48124998807907104	0.5504199862480164	0.5028600096702576	-0.051330000162124634	2183	2018/02/03 14:22:52.072
UPBOARD	IMU	22.791770935058594	0.9837539792060852	-0.03911399841308594	0.005903999786823988	0.08972399681806564	-0.26917198300361633	-0.44624999165534973	0.5504199862480164	0.5028600096702576	-0.051330000162124634	2183	2018/02/03 14:22:52.103
UPBOARD	IMU	22.78795623779297	0.9837539792060852	-0.04058999940752983	0.006641999818384647	-0.3813270032405853	-0.09720099717378616	-0.42875000834465027	0.5504199862480164	0.5028600096702576	-0.051330000162124634	2183	2018/02/03 14:22:52.135
UPBOARD	IMU	22.79558563232422	0.9859679937362671	-0.03616200014948845	0.0051659997552633286	-0.06729299575090408	-0.08224699646234512	-0.5074999928474426	0.5544800162315369	0.5089499950408936	-0.04611000046133995	2183	2018/02/03 14:22:52.199
UPBOARD	IMU	22.80512046813965	0.9844919443130493	-0.03616200014948845	0.005903999786823988	0.02990799956023693	-0.4486199915409088	-0.4637500047683716	0.5544800162315369	0.5089499950408936	-0.04611000046133995	2184	2018/02/03 14:22:52.224
UPBOARD	IMU	-1.7205078236669918e-13	2.657381007069629e-15	4.258469007515976e+17	2.273016843667087e+26	0.3697996437549591	390620.65625	1.803755061444637e+24	-1.4718301289950917e-31	-2.9845147132873535	1.737831641049983e-38	2184	2018/02/03 14:22:52.256
UPBOARD	IMU	22.79939842224121	0.9844919443130493	-0.03911399841308594	0.005903999786823988	-0.16449399292469025	-0.16449399292469025	-0.3675000071525574	0.557669997215271	0.506339967250824	-0.045819997787475586	2184	2018/02/03 14:22:52.287
UPBOARD	IMU	22.782236099243164	0.9859679937362671	-0.03837599977850914	0.005903999786823988	-0.261694997549057	-0.2243099957704544	-0.3149999976158142	0.557669997215271	0.506339967250824	-0.045819997787475586	2184	2018/02/03 14:22:52.319
UPBOARD	IMU	22.79939842224121	0.9859679937362671	-0.034685999155044556	0.007379999849945307	-0.2841259837150574	-0.2990799844264984	-0.42000001668930054	0.557669997215271	0.506339967250824	-0.045819997787475586	2184	2018/02/03 14:22:52.361
UPBOARD	IMU	22.7974910736084	0.9881819486618042	-0.03911399841308594	0.0036899999249726534	0.06729299575090408	-0.2916029989719391	-0.23624999821186066	0.5489699840545654	0.5043100118637085	-0.049300000071525574	2184	2018/02/03 14:22:52.392
UPBOARD	IMU	22.7974910736084	0.9830159544944763	-0.03911399841308594	0.008855999447405338	-0.05233899876475334	-0.1420629918575287	-0.6912500262260437	0.5489699840545654	0.5043100118637085	-0.049300000071525574	2184	2018/02/03 14:22:52.423
UPBOARD	IMU	22.7974910736084	0.9830159544944763	-0.04132799804210663	0.009593999944627285	-0.06729299575090408	-0.1420629918575287	-0.5425000190734863	0.5489699840545654	0.5043100118637085	-0.049300000071525574	2184	2018/02/03 14:22:52.465
UPBOARD	IMU	22.7974910736084	0.9837539792060852	-9.529899952163895e+32	-5.4162750673381055e-12	-418885241143296.0	410241826816.0	6.348729372761673e+37	1.737189836426012e-10	1.737064710400458e-38	0.0	2184	2018/02/03 14:22:52.486
UPBOARD	IMU	22.79939842224121	0.9808019399642944	-0.03837599977850914	0.004427999723702669	-0.4486199915409088	-0.5757290124893188	-0.4987500011920929	0.5501300096511841	0.5060499906539917	-0.0405999980866909	2184	2018/02/03 14:22:52.528
UPBOARD	IMU	22.79939842224121	0.9822779893875122	-0.03542399778962135	0.006641999818384647	-0.35141900181770325	-0.2990799844264984	-0.3412500023841858	0.5501300096511841	0.5060499906539917	-0.0405999980866909	2184	2018/02/03 14:22:52.560
UPBOARD	IMU	22.79939842224121	0.9859679937362671	-0.03837599977850914	0.0051659997552633286	6.859759037450289e+18	8.885167090966206e-08	1525.5999755859375	-2.245749348470196e-36	-9.236541536383879e+26	1.7359567037047163e-38	2184	2018/02/03 14:22:52.593
UPBOARD	IMU	22.801305770874023	0.9874439835548401	-0.03689999878406525	0.002951999893411994	-0.04486199840903282	-0.19440199434757233	-0.65625	0.5472300052642822	0.5072100162506104	-0.03305999934673309	2184	2018/02/03 14:22:52.626
UPBOARD	IMU	22.79558563232422	0.9859679937362671	-0.03911399841308594	0.0051659997552633286	-0.2916029989719391	-0.2990799844264984	-0.5162500143051147	0.5472300052642822	0.5072100162506104	-0.03305999934673309	2184	2018/02/03 14:22:52.648
UPBOARD	IMU	22.79939842224121	0.9867059588432312	-0.037637997418642044	0.005903999786823988	-0.1869249939918518	-0.261694997549057	-0.26249998807907104	0.5472300052642822	0.5072100162506104	-0.028130000457167625	2184	2018/02/03 14:22:52.674
UPBOARD	IMU	22.784143447875977	0.9837539792060852	-0.04132799804210663	0.006641999818384647	-0.4785279929637909	-0.2990799844264984	-0.24500000476837158	0.5457800030708313	0.504889965057373	-0.028130000457167625	2184	2018/02/03 14:22:52.709
UPBOARD	IMU	22.79939842224121	0.9852299690246582	-0.037637997418642044	0.006641999818384647	-0.38880398869514465	-0.261694997549057	-0.22750000655651093	0.5457800030708313	0.504889965057373	-0.028130000457167625	2184	2018/02/03 14:22:52.742
UPBOARD	IMU	22.80702781677246	0.9852299690246582	-0.037637997418642044	0.009593999944627285	-0.12710899114608765	-0.20935599505901337	-0.48124998807907104	0.5457800030708313	0.504889965057373	-0.028130000457167625	2184	2018/02/03 14:22:52.775
UPBOARD	IMU	22.803213119506836	0.9844919443130493	-0.03837599977850914	0.007379999849945307	0.0	-0.1495399922132492	-0.6387500166893005	0.5443300008773804	0.5040199756622314	-0.023490000516176224	2184	2018/02/03 14:22:52.808
UPBOARD	IMU	-11.967826843261719	-7.314166491495407e+27	2.272111108533068e+26	-4.687767403701593e+29	8.462265718885142e-14	5.692168997484259e-06	6.054436387892188e+31	3.9498704131079364e-23	1.7334104042651917e-38	0.0	2113	2018/02/03 14:22:52.830
UPBOARD	IMU	22.801305770874023	0.9808019399642944	-0.03837599977850914	0.004427999723702669	-0.32151100039482117	-0.19440199434757233	-0.65625	0.5443300008773804	0.5040199756622314	-0.023490000516176224	2184	2018/02/03 14:22:52.863
UPBOARD	IMU	22.793678283691406	0.9852299690246582	-0.037637997418642044	0.008117999881505966	-0.4486199915409088	-0.26917198300361633	-0.6474999785423279	0.5431699752807617	0.5069199800491333	-0.03711999952793121	2184	2018/02/03 14:22:52.904
UPBOARD	IMU	22.791770935058594	2.6589387006596297e-15	-7.315994047324277e+27	-1.630159773267326e-16	7.532517244408178e-29	-8.26717457584447e-17	1.3912266894067216e-09	-1.4035635231625517e-37	4.1418021840216215e-17	1.7365533765908258e-38	2184	2018/02/03 14:22:52.926
UPBOARD	IMU	22.7974910736084	0.9852299690246582	-2.9139447011968767e-31	2.2686851792236986e+26	-1.7852224957318092e-35	0.09296739846467972	1.3905900875244015e-09	-1.4035635231625517e-37	4.1418021840216215e-17	1.7365533765908258e-38	2184	2018/02/03 14:22:52.959
UPBOARD	IMU	22.791770935058594	0.9874439835548401	-0.03689999878406525	0.009593999944627285	-0.1420629918575287	-0.38880398869514465	-0.5074999928474426	0.543749988079071	0.5011199712753296	-0.04262999817728996	2184	2018/02/03 14:22:52.992
UPBOARD	IMU	22.79939842224121	0.9837539792060852	-0.03837599977850914	0.007379999849945307	-0.0373849980533123	0.05233899876475334	-0.4112499952316284	0.543749988079071	0.5011199712753296	-0.04262999817728996	2184	2018/02/03 14:22:53.025
UPBOARD	IMU	22.80512046813965	0.9859679937362671	-0.037637997418642044	0.0051659997552633286	0.0	-0.2990799844264984	-0.4724999964237213	0.543749988079071	0.5011199712753296	-0.04262999817728996	2184	2018/02/03 14:22:53.058
UPBOARD	IMU	22.791770935058594	0.9867059588432312	-0.039851997047662735	0.006641999818384647	-0.20187899470329285	-0.15701699256896973	-0.5774999856948853	0.5431699752807617	0.4982199966907501	-0.03711999952793121	2184	2018/02/03 14:22:53.090
UPBOARD	IMU	22.814655303955078	0.9837539792060852	-0.03911399841308594	0.007379999849945307	-0.17197099328041077	-0.3663730025291443	-0.4987500011920929	0.5431699752807617	0.4982199966907501	-0.03711999952793121	2184	2018/02/03 14:22:53.123
UPBOARD	IMU	22.78795623779297	0.9844919443130493	-0.039851997047662735	-0.37785598635673523	-0.32151100039482117	-0.6212499737739563	0.5431699752807617	0.4982199966907501	-0.03711999952793121	0.0	2184	2018/02/03 14:22:53.158
UPBOARD	IMU	22.7974910736084	0.9844919443130493	-0.037637997418642044	0.0051659997552633286	-0.1121549978852272	-0.17197099328041077	-0.32374998927116394	0.5443300008773804	0.4985100030899048	-0.035670001059770584	2184	2018/02/03 14:22:53.192
UPBOARD	IMU	22.80893325805664	0.9815399646759033	-0.03837599977850914	0.004427999723702669	-0.13458599150180817	-0.1794479936361313	-0.5774999856948853	0.5443300008773804	0.4985100030899048	-0.035670001059770584	2185	2018/02/03 14:22:53.214
UPBOARD	IMU	22.803213119506836	0.9830159544944763	-0.03911399841308594	0.006641999818384647	-0.16449399292469025	8.853569255506955e-08	5.6982039495778736e-06	-1.7792389428450406e-07	-7.115193056961289e-07	1.736340239094402e-38	2185	2018/02/03 14:22:53.248
UPBOARD	IMU	22.7974910736084	0.9815399646759033	-0.03689999878406525	0.005903999786823988	-0.19440199434757233	-0.3065569996833801	5.683824383595493e-06	-1.7792389428450406e-07	12223.80859375	1.7371073098737734e-38	2185	2018/02/03 14:22:53.303
UPBOARD	IMU	22.80702781677246	0.9867059588432312	-0.03689999878406525	0.008855999447405338	-0.08224699646234512	-0.1495399922132492	-0.5074999928474426	0.5446199774742126	0.4985100030899048	-0.04089000076055527	2185	2018/02/03 14:22:53.326
UPBOARD	IMU	22.791770935058594	0.9844919443130493	-0.03689999878406525	0.007379999849945307	-0.6280679702758789	0.02990799956023693	-0.7087500095367432	0.5446199774742126	0.4985100030899048	-0.04089000076055527	2185	2018/02/03 14:22:53.358
UPBOARD	IMU	22.793678283691406	0.9889199733734131	-0.03911399841308594	0.008117999881505966	-0.3289879858493805	-0.1794479936361313	-0.6299999952316284	0.5446199774742126	0.4985100030899048	-0.04089000076055527	2185	2018/02/03 14:22:53.391
UPBOARD	IMU	22.793678283691406	0.9859679937362671	-0.03837599977850914	0.008117999881505966	0.0	-0.06729299575090408	-0.6037499904632568	0.5483899712562561	0.4985100030899048	-0.031610000878572464	2185	2018/02/03 14:22:53.424
UPBOARD	IMU	22.79558563232422	0.9844919443130493	-0.03911399841308594	0.005903999786823988	-0.10467799752950668	-0.2243099957704544	-0.5862500071525574	0.5483899712562561	0.4985100030899048	-0.031610000878572464	2185	2018/02/03 14:22:53.458
UPBOARD	IMU	22.801305770874023	0.9881819486618042	-0.03689999878406525	0.007379999849945307	-0.26917198300361633	-0.11963199824094772	-0.5162500143051147	1.1662964838424015e+37	1.735743706338139e-38	0.0	2185	2018/02/03 14:22:53.492
UPBOARD	IMU	22.801305770874023	0.9830159544944763	-0.03837599977850914	0.005903999786823988	-0.46357399225234985	-0.2990799844264984	-0.26249998807907104	0.5425900220870972	0.5051800012588501	-0.0405999980866909	2185	2018/02/03 14:22:53.525
UPBOARD	IMU	22.79939842224121	0.9837539792060852	-0.03616200014948845	0.005903999786823988	-0.05981599912047386	-0.3663730025291443	-0.4724999964237213	0.5425900220870972	0.5051800012588501	-0.0405999980866909	2185	2018/02/03 14:22:53.558
UPBOARD	IMU	22.793678283691406	0.9837539792060852	-0.03689999878406525	0.004427999723702669	0.02243099920451641	-0.2841259837150574	-0.42875000834465027	0.5425900220870972	0.5051800012588501	-0.0405999980866909	2185	2018/02/03 14:22:53.591
UPBOARD	IMU	22.803213119506836	0.9830159544944763	-0.04132799804210663	0.007379999849945307	-0.13458599150180817	-0.5832059979438782	-0.6037499904632568	0.5478100180625916	0.5014100074768066	-0.03248000144958496	2185	2018/02/03 14:22:53.635
UPBOARD	IMU	22.791770935058594	0.9852299690246582	-0.03911399841308594	0.0036899999249726534	0.08224699646234512	-0.4336659908294678	-0.38499999046325684	0.5478100180625916	0.5014100074768066	-0.03248000144958496	2185	2018/02/03 14:22:53.647
UPBOARD	IMU	22.79939842224121	0.9822779893875122	-0.044280000030994415	0.006641999818384647	-0.4037579894065857	-0.4785279929637909	-0.4112499952316284	0.5478100180625916	0.5014100074768066	-0.03248000144958496	2185	2018/02/03 14:22:53.680
UPBOARD	IMU	22.791770935058594	0.9874439835548401	-0.042065996676683426	0.006641999818384647	-0.35141900181770325	-0.17197099328041077	-0.07874999940395355	0.545199990272522	0.5043100118637085	-0.04292000085115433	2185	2018/02/03 14:22:53.713
UPBOARD	IMU	22.79558563232422	0.9874439835548401	-0.03911399841308594	0.008117999881505966	-0.11963199824094772	-0.3364650011062622	-0.29750001430511475	0.545199990272522	0.5043100118637085	-0.04292000085115433	2185	2018/02/03 14:22:53.745
UPBOARD	IMU	22.801305770874023	0.9830159544944763	-0.03911399841308594	0.006641999818384647	-0.24674099683761597	-0.3813270032405853	-0.2800000011920929	0.545199990272522	0.5043100118637085	-0.04292000085115433	2185	2018/02/03 14:22:53.782
UPBOARD	IMU	22.80512046813965	0.9815399646759033	-0.03616200014948845	0.008117999881505966	-0.1869249939918518	-0.32151100039482117	-0.4025000035762787	0.5507100224494934	0.501990020275116	-0.03480000048875809	2185	2018/02/03 14:22:53.816
UPBOARD	IMU	22.801305770874023	0.9837539792060852	-0.04058999940752983	0.008117999881505966	-0.15701699256896973	-0.34394198656082153	-0.4375	0.5507100224494934	0.501990020275116	-0.03480000048875809	2185	2018/02/03 14:22:53.839
UPBOARD	IMU	22.79558563232422	0.9859679937362671	-0.034685999155044556	0.005903999786823988	-0.3663730025291443	-0.3364650011062622	-0.33250001072883606	0.5507100224494934	0.501990020275116	-0.03480000048875809	2185	2018/02/03 14:22:53.878
UPBOARD	IMU	22.803213119506836	0.9867059588432312	-0.03542399778962135	0.006641999818384647	-0.4785279929637909	-0.17197099328041077	-0.38499999046325684	0.5480999946594238	0.49966999888420105	-0.03886000066995621	2185	2018/02/03 14:22:53.910
UPBOARD	IMU	22.79939842224121	0.9844919443130493	-0.03394800052046776	0.006641999818384647	-0.1869249939918518	-0.11963199824094772	-0.4987500011920929	0.5480999946594238	0.49966999888420105	-0.03886000066995621	2185	2018/02/03 14:22:53.935
UPBOARD	IMU	22.78795623779297	0.9867059588432312	-0.03911399841308594	0.008117999881505966	-0.10467799752950668	-0.3364650011062622	-0.32374998927116394	0.5480999946594238	0.49966999888420105	-0.03886000066995621	2185	2018/02/03 14:22:53.988
UPBOARD	IMU	22.80893325805664	0.9844919443130493	-0.03689999878406525	0.007379999849945307	-0.05233899876475334	0.04486199840903282	-0.5512499809265137	0.5480999946594238	0.49966999888420105	-0.03799000009894371	2185	2018/02/03 14:22:54.019
UPBOARD	IMU	22.79939842224121	0.9881819486618042	-0.03837599977850914	0.008117999881505966	0.1420629918575287	-0.08224699646234512	-0.4637500047683716	0.5530300140380859	0.506339967250824	-0.03799000009894371	2185	2018/02/03 14:22:54.051
UPBOARD	IMU	22.791770935058594	0.9874439835548401	-0.04132799804210663	0.008855999447405338	-0.08224699646234512	-0.38880398869514465	-0.5512499809265137	0.5530300140380859	0.506339967250824	-0.03799000009894371	2185	2018/02/03 14:22:54.083
UPBOARD	IMU	22.79939842224121	0.9867059588432312	-0.039851997047662735	0.005903999786823988	-0.23926399648189545	-0.2542179822921753	-0.48124998807907104	0.5530300140380859	0.506339967250824	-0.03799000009894371	2185	2018/02/03 14:22:54.116
UPBOARD	IMU	22.78605079650879	0.9867059588432312	-0.03616200014948845	0.006641999818384647	-0.2542179822921753	-0.39628100395202637	-0.2537499964237213	0.5483899712562561	0.5031499862670898	-0.041179999709129333	2185	2018/02/03 14:22:54.151
UPBOARD	IMU	200788352.0	5.248640504694219e-15	-2.1179755046895616e+17	-3.1570564386154404e+37	-9.087714715860784e-05	1565091.75	2.3650644599997635e+29	2.150504212599931e+17	1.737149909347089e-38	0.0	2185	2018/02/03 14:22:54.173
UPBOARD	IMU	22.803213119506836	0.9881819486618042	-0.034685999155044556	0.004427999723702669	-0.0747699961066246	-0.12710899114608765	-0.3062500059604645	0.5483899712562561	0.5031499862670898	-0.041179999709129333	2186	2018/02/03 14:22:54.206
UPBOARD	IMU	22.78605079650879	0.9852299690246582	-0.04058999940752983	0.005903999786823988	-0.02990799956023693	-0.2243099957704544	-0.5862500071525574	0.5553500056266785	0.4973500072956085	-0.045239999890327454	2186	2018/02/03 14:22:54.239
UPBOARD	IMU	22.7974910736084	0.9852299690246582	-2.9130348685693403e-31	4.069254473833781e-17	7.520720923498806e-29	-419195552530432.0	4.618912345950823e+26	-4.2422808294679745e-14	-9.64276761597339e-27	1.737746442103352e-38	2186	2018/02/03 14:22:54.272
UPBOARD	IMU	22.803213119506836	0.9859679937362671	-0.03616200014948845	0.007379999849945307	-0.38880398869514465	-0.47105100750923157	-0.33250001072883606	0.5553500056266785	0.4973500072956085	-0.045239999890327454	2186	2018/02/03 14:22:54.304
UPBOARD	IMU	22.78986358642578	0.9852299690246582	-0.03394800052046776	0.005903999786823988	-0.4112350046634674	-0.3738499879837036	-0.5687500238418579	0.5507100224494934	0.500249981880188	-0.03886000066995621	2186	2018/02/03 14:22:54.337
UPBOARD	IMU	22.793678283691406	0.9874439835548401	-0.03911399841308594	0.007379999849945307	-0.1794479936361313	-0.34394198656082153	-0.6650000214576721	0.5507100224494934	0.500249981880188	-0.03886000066995621	2186	2018/02/03 14:22:54.369
UPBOARD	IMU	22.793678283691406	0.9844919443130493	-0.037637997418642044	0.006641999818384647	0.08224699646234512	-0.2243099957704544	-0.7612500190734863	0.5507100224494934	0.500249981880188	-0.03886000066995621	2186	2018/02/03 14:22:54.402
UPBOARD	IMU	22.79558563232422	0.9852299690246582	-0.03837599977850914	0.005903999786823988	-0.20935599505901337	-0.2542179822921753	-0.5337499976158142	0.5518699884414673	0.49300000071525574	-0.041759997606277466	2186	2018/02/03 14:22:54.435
UPBOARD	IMU	22.791770935058594	0.9867059588432312	-0.03911399841308594	0.005903999786823988	-0.24674099683761597	-0.2542179822921753	-0.2887499928474426	0.5518699884414673	0.49300000071525574	-0.041759997606277466	2186	2018/02/03 14:22:54.470
UPBOARD	IMU	22.78605079650879	0.9852299690246582	-0.03616200014948845	0.008117999881505966	-8.630086228977873e-11	2.6828785944887296e+16	2.5395148710516174e+38	-5.747275652853292e-34	1.7372351082937198e-38	0.0	2186	2018/02/03 14:22:54.495
UPBOARD	IMU	22.79558563232422	0.9852299690246582	-0.03837599977850914	0.002951999893411994	-0.02243099920451641	-0.12710899114608765	-0.2887499928474426	0.5475199818611145	0.5077899694442749	-0.03943999856710434	2186	2018/02/03 14:22:54.528
UPBOARD	IMU	22.7974910736084	0.9852299690246582	-0.03837599977850914	0.005903999786823988	0.0	-0.2542179822921753	-0.4987500011920929	0.5475199818611145	0.5077899694442749	-0.03943999856710434	2186	2018/02/03 14:22:54.561
UPBOARD	IMU	22.79558563232422	0.9837539792060852	-0.037637997418642044	0.006641999818384647	-0.05233899876475334	-0.12710899114608765	6092.0	-3.593204410284898e-35	-52503819321344.0	1.7368941723773496e-38	2186	2018/02/03 14:22:54.594
UPBOARD	IMU	22.7974910736084	0.9844919443130493	-0.03542399778962135	0.005903999786823988	-0.5383439660072327	0.06729299575090408	-0.4025000035762787	0.545199990272522	0.504889965057373	-0.039730001240968704	2186	2018/02/03 14:22:54.638
UPBOARD	IMU	22.793678283691406	0.9859679937362671	-0.03616200014948845	0.008117999881505966	-0.4411430060863495	-0.19440199434757233	-0.4375	0.545199990272522	0.504889965057373	-0.039730001240968704	2186	2018/02/03 14:22:54.671
UPBOARD	IMU	22.79558563232422	0.9889199733734131	-0.034685999155044556	0.006641999818384647	-0.1869249939918518	-0.20935599505901337	-0.6387500166893005	0.545199990272522	0.504889965057373	-0.039730001240968704	2186	2018/02/03 14:22:54.704
UPBOARD	IMU	22.791770935058594	0.9874439835548401	-0.03394800052046776	0.006641999818384647	-0.20187899470329285	-0.4037579894065857	-0.6299999952316284	0.545199990272522	0.5045999884605408	-0.036249998956918716	2186	2018/02/03 14:22:54.737
UPBOARD	IMU	22.7974910736084	0.9881819486618042	-0.03911399841308594	0.0051659997552633286	-0.2243099957704544	-0.27664899826049805	-0.2887499928474426	0.5431699752807617	0.5045999884605408	-0.036249998956918716	2186	2018/02/03 14:22:54.770
UPBOARD	IMU	22.79939842224121	0.9815399646759033	-0.03542399778962135	0.006641999818384647	-0.05233899876475334	-0.014953999780118465	-0.6650000214576721	0.5431699752807617	0.5045999884605408	-0.036249998956918716	2186	2018/02/03 14:22:54.803
UPBOARD	IMU	22.793678283691406	0.9852299690246582	-0.04058999940752983	0.006641999818384647	-0.3588959872722626	-0.09720099717378616	-0.5774999856948853	0.5431699752807617	1.736425438041033e-38	0.0	2186	2018/02/03 14:22:54.836
UPBOARD	IMU	22.803213119506836	0.9859679937362671	-0.03837599977850914	0.006641999818384647	-0.32151100039482117	-0.23178699612617493	-0.6912500262260437	0.5509999990463257	0.49879997968673706	-0.04436999931931496	2186	2018/02/03 14:22:54.869
UPBOARD	IMU	22.791770935058594	0.9896579384803772	-0.03542399778962135	0.005903999786823988	-0.2243099957704544	-0.2990799844264984	-0.45500001311302185	0.5509999990463257	0.49879997968673706	-0.04436999931931496	2186	2018/02/03 14:22:54.902
UPBOARD	IMU	22.79558563232422	0.9874439835548401	-0.03616200014948845	0.006641999818384647	-0.12710899114608765	-0.10467799752950668	-0.3675000071525574	0.5509999990463257	0.49879997968673706	-0.04436999931931496	2186	2018/02/03 14:22:54.949
UPBOARD	IMU	22.7974910736084	0.9844919443130493	-0.037637997418642044	0.008855999447405338	-0.2168329954147339	-0.31403398513793945	-0.39375001192092896	0.5547699928283691	0.5045999884605408	-0.0414699986577034	2186	2018/02/03 14:22:54.961
UPBOARD	IMU	22.79939842224121	0.9822779893875122	-0.042065996676683426	0.005903999786823988	-0.4336659908294678	-0.20935599505901337	-0.5950000286102295	0.5547699928283691	0.5045999884605408	-0.0414699986577034	2186	2018/02/03 14:22:54.995
UPBOARD	IMU	22.803213119506836	0.9852299690246582	-0.03837599977850914	0.005903999786823988	-0.19440199434757233	-0.23178699612617493	-0.6212499737739563	0.5547699928283691	0.5045999884605408	-0.0414699986577034	2186	2018/02/03 14:22:55.027
UPBOARD	IMU	22.793678283691406	0.9859679937362671	-0.037637997418642044	0.008117999881505966	-0.3588959872722626	-0.261694997549057	-0.33250001072883606	0.5582500100135803	0.5028600096702576	-0.04089000076055527	2186	2018/02/03 14:22:55.060
UPBOARD	IMU	22.803213119506836	0.9852299690246582	-0.037637997418642044	0.005903999786823988	0.014953999780118465	-0.4037579894065857	-0.3412500023841858	0.5582500100135803	0.5028600096702576	-0.04089000076055527	2186	2018/02/03 14:22:55.095
UPBOARD	IMU	22.80702781677246	0.9830159544944763	-0.03542399778962135	0.006641999818384647	-0.1869249939918518	-0.19440199434757233	-0.6387500166893005	0.5582500100135803	0.5028600096702576	-0.04089000076055527	2186	2018/02/03 14:22:55.119
UPBOARD	IMU	22.791770935058594	0.9830159544944763	-0.03837599977850914	0.0051659997552633286	-0.2542179822921753	-0.24674099683761597	-0.49000000953674316	0.5504199862480164	0.5083699822425842	-0.04436999931931496	2186	2018/02/03 14:22:55.154
UPBOARD	IMU	22.791770935058594	0.9837539792060852	-0.03616200014948845	0.0051659997552633286	-0.23178699612617493	-0.12710899114608765	-0.26249998807907104	0.5504199862480164	0.5083699822425842	-0.04436999931931496	2186	2018/02/03 14:22:55.188
UPBOARD	IMU	22.78795623779297	0.9852299690246582	-0.03911399841308594	0.005903999786823988	-0.24674099683761597	-0.26917198300361633	-0.35875001549720764	0.5504199862480164	0.5083699822425842	-0.04436999931931496	2187	2018/02/03 14:22:55.223
UPBOARD	IMU	22.801305770874023	0.9867059588432312	-0.04058999940752983	0.005903999786823988	-0.1420629918575287	-0.23926399648189545	-0.5249999761581421	0.5518699884414673	0.5072100162506104	-0.03189999982714653	2187	2018/02/03 14:22:55.245
UPBOARD	IMU	22.791770935058594	0.9830159544944763	-0.04058999940752983	0.005903999786823988	-0.16449399292469025	-0.2542179822921753	-0.5074999928474426	0.5518699884414673	0.5072100162506104	-0.03189999982714653	2187	2018/02/03 14:22:55.279
UPBOARD	IMU	22.79558563232422	0.9822779893875122	-0.03689999878406525	0.007379999849945307	-0.261694997549057	-0.32151100039482117	-0.2800000011920929	0.5509999990463257	0.506339967250824	-0.034219998866319656	2187	2018/02/03 14:22:55.358
UPBOARD	IMU	22.80702781677246	0.9830159544944763	-0.037637997418642044	0.006641999818384647	-0.08972399681806564	-0.15701699256896973	-0.3062500059604645	0.5509999990463257	0.506339967250824	-0.034219998866319656	2187	2018/02/03 14:22:55.391
UPBOARD	IMU	22.801305770874023	0.9859679937362671	-0.04132799804210663	0.005903999786823988	-0.27664899826049805	-0.1794479936361313	-0.7612500190734863	0.5509999990463257	0.506339967250824	-0.034219998866319656	2187	2018/02/03 14:22:55.423
UPBOARD	IMU	22.793678283691406	0.9830159544944763	-0.03616200014948845	0.006641999818384647	-0.27664899826049805	-0.0747699961066246	-0.22750000655651093	0.5518699884414673	0.5040199756622314	-0.049879997968673706	2187	2018/02/03 14:22:55.456
UPBOARD	IMU	22.7974910736084	0.9852299690246582	-0.03616200014948845	0.007379999849945307	-0.20935599505901337	-0.3588959872722626	-0.3062500059604645	0.5518699884414673	0.5040199756622314	-0.049879997968673706	2187	2018/02/03 14:22:55.489
UPBOARD	IMU	0.981774091720581	-0.03616200014948845	0.006641999818384647	-0.11963199824094772	-0.5009589791297913	-0.7699999809265137	0.5518699884414673	0.5040199756622314	-0.049879997968673706	0.0	2187	2018/02/03 14:22:55.524
UPBOARD	IMU	22.80512046813965	0.9822779893875122	-0.03911399841308594	0.006641999818384647	-0.4486199915409088	-0.4560970067977905	-0.5425000190734863	0.5518699884414673	0.5040199756622314	-0.049879997968673706	2187	2018/02/03 14:22:55.557
UPBOARD	IMU	22.79939842224121	0.9867059588432312	-0.03616200014948845	0.009593999944627285	-0.34394198656082153	-0.27664899826049805	-0.9449999928474426	0.5504199862480164	0.5031499862670898	-0.045239999890327454	2187	2018/02/03 14:22:55.589
UPBOARD	IMU	22.80893325805664	0.9815399646759033	-2.913417609529968e-31	2.2686851792236986e+26	-4.7249056048801546e+29	7.696385836320717e-26	1638250840064.0	2.3650895829894524e+29	-9.643194402049066e-27	1.737746442103352e-38	2187	2018/02/03 14:22:55.621
UPBOARD	IMU	22.78605079650879	0.9859679937362671	166182820773888.0	1.6676056694385488e-13	2.2672162231174298e-05	1.9597575627947622e+36	1641418326016.0	2.3650895829894524e+29	-9.643194402049066e-27	1.737746442103352e-38	2187	2018/02/03 14:22:55.653
UPBOARD	IMU	22.79939842224121	0.9859679937362671	-0.04132799804210663	0.004427999723702669	-0.1420629918575287	-0.27664899826049805	-0.42875000834465027	0.551580011844635	0.5060499906539917	-0.04002000018954277	2187	2018/02/03 14:22:55.685
UPBOARD	IMU	22.791770935058594	0.9889199733734131	-0.037637997418642044	0.006641999818384647	-0.1869249939918518	-0.014953999780118465	-0.42000001668930054	0.551580011844635	0.5060499906539917	-0.04002000018954277	2187	2018/02/03 14:22:55.717
UPBOARD	IMU	22.801305770874023	0.9830159544944763	-0.04058999940752983	0.005903999786823988	-0.3289879858493805	-0.2542179822921753	-0.65625	0.551580011844635	0.5060499906539917	-0.04002000018954277	2187	2018/02/03 14:22:55.749
UPBOARD	IMU	22.793678283691406	0.9837539792060852	-0.037637997418642044	0.006641999818384647	-0.24674099683761597	-0.3588959872722626	-0.35875001549720764	0.5518699884414673	0.5014100074768066	-0.043209999799728394	2187	2018/02/03 14:22:55.781
UPBOARD	IMU	22.80512046813965	0.9830159544944763	-0.037637997418642044	0.008117999881505966	-0.16449399292469025	0.007476999890059233	-0.65625	0.5518699884414673	0.5014100074768066	-0.043209999799728394	2187	2018/02/03 14:22:55.813
UPBOARD	IMU	22.803213119506836	0.9837539792060852	-0.03616200014948845	0.0051659997552633286	8.457317013594104e-14	2.6880508088549376e+16	3.6088676879609486e+24	-1.549587482767349e+34	1.7374481056602972e-38	0.0	2187	2018/02/03 14:22:55.844
UPBOARD	IMU	22.801305770874023	0.9844919443130493	-0.037637997418642044	0.006641999818384647	-0.1495399922132492	-0.42618900537490845	-0.7350000143051147	0.5466499924659729	0.501990020275116	-0.039730001240968704	2187	2018/02/03 14:22:55.877
UPBOARD	IMU	22.80702781677246	0.9844919443130493	-0.03616200014948845	0.0051659997552633286	1.7870029211044312	-0.2168329954147339	-0.4637500047683716	0.5466499924659729	0.501990020275116	-0.039730001240968704	2187	2018/02/03 14:22:55.909
UPBOARD	IMU	22.79939842224121	0.9852299690246582	-0.03689999878406525	0.004427999723702669	-0.24674099683761597	-0.5009589791297913	-0.38499999046325684	0.5466499924659729	0.501990020275116	-0.039730001240968704	2187	2018/02/03 14:22:55.941
UPBOARD	IMU	22.79939842224121	0.9830159544944763	-0.039851997047662735	0.007379999849945307	-0.34394198656082153	-0.38880398869514465	376176.65625	9.23851902734858e+26	-2.984410524368286	1.7368515729040341e-38	2187	2018/02/03 14:22:55.982
UPBOARD	IMU	22.78605079650879	0.9837539792060852	-0.037637997418642044	0.005903999786823988	-0.4411430060863495	-0.04486199840903282	-0.33250001072883606	0.5480999946594238	0.5022799968719482	-0.03914999961853027	2187	2018/02/03 14:22:56.016
UPBOARD	IMU	22.7974910736084	0.9852299690246582	-0.03689999878406525	0.008117999881505966	-0.06729299575090408	-0.3289879858493805	-0.26249998807907104	0.5480999946594238	0.5022799968719482	-0.03914999961853027	2187	2018/02/03 14:22:56.049
UPBOARD	IMU	22.7974910736084	0.9844919443130493	-0.03911399841308594	0.0036899999249726534	-0.02990799956023693	-0.26917198300361633	-0.5862500071525574	0.557669997215271	0.4982199966907501	-0.03799000009894371	2187	2018/02/03 14:22:56.082
UPBOARD	IMU	22.79558563232422	0.9837539792060852	-0.04058999940752983	0.0051659997552633286	-0.20187899470329285	-0.1869249939918518	-0.6474999785423279	0.557669997215271	0.4982199966907501	-0.03799000009894371	2187	2018/02/03 14:22:56.115
UPBOARD	IMU	22.79558563232422	0.9822779893875122	-0.03837599977850914	0.006641999818384647	-0.17197099328041077	-0.1794479936361313	-0.3062500059604645	0.557669997215271	0.4982199966907501	-0.03799000009894371	2187	2018/02/03 14:22:56.148
UPBOARD	IMU	22.79558563232422	0.9852299690246582	-0.04280399903655052	0.009593999944627285	-0.32151100039482117	-0.261694997549057	-0.45500001311302185	0.557669997215271	1.7392319586053827e-38	0.0	2187	2018/02/03 14:22:56.181
UPBOARD	IMU	22.79558563232422	0.9830159544944763	-0.034685999155044556	0.007379999849945307	-0.04486199840903282	-0.20187899470329285	-0.4025000035762787	0.5553500056266785	0.49879997968673706	-0.051330000162124634	2188	2018/02/03 14:22:56.204
UPBOARD	IMU	22.793678283691406	0.9859679937362671	-0.03616200014948845	0.0051659997552633286	-0.02243099920451641	-0.08972399681806564	-0.5162500143051147	0.5553500056266785	0.49879997968673706	-0.051330000162124634	2188	2018/02/03 14:22:56.246
UPBOARD	IMU	22.79939842224121	0.9837539792060852	-0.037637997418642044	0.005903999786823988	-0.13458599150180817	-0.39628100395202637	-0.5162500143051147	0.5553500056266785	0.49879997968673706	-0.051330000162124634	2188	2018/02/03 14:22:56.277
UPBOARD	IMU	22.80702781677246	0.9881819486618042	-0.03542399778962135	0.006641999818384647	-0.12710899114608765	-0.20935599505901337	-0.22750000655651093	0.5565099716186523	0.5054699778556824	-0.03856999799609184	2188	2018/02/03 14:22:56.308
UPBOARD	IMU	22.7974910736084	0.9837539792060852	-0.03911399841308594	0.006641999818384647	-0.42618900537490845	-0.20187899470329285	-0.2800000011920929	0.5565099716186523	0.5054699778556824	-0.03856999799609184	2188	2018/02/03 14:22:56.339
UPBOARD	IMU	22.79558563232422	0.9874439835548401	-0.03616200014948845	0.005903999786823988	-0.39628100395202637	-0.2916029989719391	-0.4025000035762787	0.5565099716186523	0.5054699778556824	-0.03856999799609184	2188	2018/02/03 14:22:56.370
UPBOARD	IMU	22.80702781677246	0.9830159544944763	-0.037637997418642044	0.0051659997552633286	-0.1495399922132492	-0.15701699256896973	-0.5337499976158142	0.5585399866104126	0.5034400224685669	-0.0313199982047081	2188	2018/02/03 14:22:56.402
UPBOARD	IMU	22.79558563232422	0.9844919443130493	-0.03616200014948845	0.006641999818384647	0.08224699646234512	-0.014953999780118465	-0.4025000035762787	0.5585399866104126	0.5034400224685669	-0.0313199982047081	2188	2018/02/03 14:22:56.434
UPBOARD	IMU	22.803213119506836	0.9874439835548401	-0.03616200014948845	0.009593999944627285	-0.10467799752950668	-0.19440199434757233	-0.7175000309944153	0.5585399866104126	0.5034400224685669	-0.0313199982047081	2188	2018/02/03 14:22:56.470
UPBOARD	IMU	22.793678283691406	0.9844919443130493	-0.039851997047662735	0.005903999786823988	-0.26917198300361633	-0.39628100395202637	-0.699999988079071	0.5492600202560425	0.500540018081665	-0.03480000048875809	2188	2018/02/03 14:22:56.493
UPBOARD	IMU	22.803213119506836	0.9837539792060852	-0.04058999940752983	0.008855999447405338	-0.4411430060863495	-0.09720099717378616	-0.48124998807907104	0.5492600202560425	0.500540018081665	-0.03480000048875809	2188	2018/02/03 14:22:56.525
UPBOARD	IMU	22.78986358642578	0.9859679937362671	-0.04058999940752983	0.008117999881505966	-0.4112350046634674	-0.2168329954147339	-0.27125000953674316	0.5492600202560425	0.500540018081665	-0.03480000048875809	2188	2018/02/03 14:22:56.558
UPBOARD	IMU	22.801305770874023	0.9830159544944763	-0.03689999878406525	0.0036899999249726534	-0.12710899114608765	-0.15701699256896973	-0.39375001192092896	0.5597000122070312	0.5054699778556824	-0.03856999799609184	2188	2018/02/03 14:22:56.590
UPBOARD	IMU	22.80893325805664	0.9844919443130493	-0.03911399841308594	0.006641999818384647	-0.23926399648189545	-0.261694997549057	-0.49000000953674316	0.5597000122070312	0.5054699778556824	-0.03856999799609184	2188	2018/02/03 14:22:56.676
UPBOARD	IMU	22.801305770874023	0.9800639748573303	-0.039851997047662735	0.005903999786823988	-0.08224699646234512	-0.2243099957704544	-0.19249999523162842	0.5504199862480164	0.5045999884605408	-0.032189998775720596	2188	2018/02/03 14:22:56.708
UPBOARD	IMU	22.801305770874023	0.9837539792060852	-0.039851997047662735	0.006641999818384647	-0.4336659908294678	0.007476999890059233	-0.5249999761581421	0.5504199862480164	0.5045999884605408	-0.032189998775720596	2188	2018/02/03 14:22:56.741
UPBOARD	IMU	22.80702781677246	0.9881819486618042	-0.03616200014948845	0.005903999786823988	-0.2990799844264984	-0.2916029989719391	-0.5249999761581421	0.5504199862480164	0.5045999884605408	-0.032189998775720596	2188	2018/02/03 14:22:56.774
UPBOARD	IMU	22.78986358642578	0.9837539792060852	-0.03689999878406525	0.004427999723702669	-0.24674099683761597	-0.1420629918575287	-0.699999988079071	0.5489699840545654	0.504889965057373	-0.04292000085115433	2188	2018/02/03 14:22:56.796
UPBOARD	IMU	22.801305770874023	0.9830159544944763	-0.037637997418642044	0.005903999786823988	-0.007476999890059233	-0.3289879858493805	-0.35875001549720764	0.5489699840545654	0.504889965057373	-0.04292000085115433	2188	2018/02/03 14:22:56.832
UPBOARD	IMU	382638432.0	5.1256254928654485e-18	-3.977882162081673e-20	4.604968821040387e+26	-416357384454144.0	100156696.0	1.5499733486775943e+34	-8.80854547517768e+20	1.7374055061869817e-38	0.0	2188	2018/02/03 14:22:56.865
UPBOARD	IMU	22.810840606689453	0.9822779893875122	-0.039851997047662735	0.0051659997552633286	-0.2243099957704544	-0.3065569996833801	-0.29750001430511475	0.5492600202560425	0.5040199756622314	-0.027549998834729195	2188	2018/02/03 14:22:56.897
UPBOARD	IMU	22.7974910736084	0.9852299690246582	-0.03542399778962135	0.004427999723702669	-0.32151100039482117	-0.26917198300361633	-0.65625	0.5492600202560425	0.5040199756622314	-0.027549998834729195	2188	2018/02/03 14:22:56.930
UPBOARD	IMU	22.78986358642578	0.9859679937362671	169506471149568.0	-1.5598133864363108e+37	7.517181425372887e-29	1.8878889341714227e+30	1599413888.0	6.054592581108082e+31	-2.299127176583242e-33	1.7346034697777178e-38	2188	2018/02/03 14:22:56.963
UPBOARD	IMU	22.791770935058594	0.9867059588432312	-0.03616200014948845	0.008855999447405338	0.02243099920451641	-0.27664899826049805	-0.612500011920929	0.5492600202560425	0.5040199756622314	-0.027549998834729195	2188	2018/02/03 14:22:57.010
UPBOARD	IMU	22.79558563232422	0.9822779893875122	-0.03542399778962135	0.004427999723702669	-0.08224699646234512	-0.19440199434757233	-0.6299999952316284	0.5527399778366089	0.5057600140571594	-0.03392999991774559	2188	2018/02/03 14:22:57.022
UPBOARD	IMU	22.793678283691406	0.9881819486618042	-0.042065996676683426	0.006641999818384647	-0.1420629918575287	-0.20187899470329285	-0.3412500023841858	0.5527399778366089	0.5057600140571594	-0.03392999991774559	2188	2018/02/03 14:22:57.055
UPBOARD	IMU	22.80512046813965	0.9867059588432312	-0.037637997418642044	0.0051659997552633286	-0.2841259837150574	-0.261694997549057	-0.3412500023841858	0.5527399778366089	0.5057600140571594	-0.03392999991774559	2188	2018/02/03 14:22:57.090
UPBOARD	IMU	22.79558563232422	0.9852299690246582	-0.037637997418642044	0.005903999786823988	-0.4411430060863495	-0.2243099957704544	-0.35875001549720764	0.5562199950218201	0.501990020275116	-0.04292000085115433	2188	2018/02/03 14:22:57.144
UPBOARD	IMU	22.79939842224121	0.9822779893875122	-0.03837599977850914	0.0036899999249726534	-0.05233899876475334	-0.20935599505901337	-0.6299999952316284	0.5562199950218201	0.501990020275116	-0.04292000085115433	2188	2018/02/03 14:22:57.156
UPBOARD	IMU	22.79939842224121	0.9837539792060852	-0.037637997418642044	0.0036899999249726534	-0.06729299575090408	-0.08972399681806564	-0.5862500071525574	0.5562199950218201	0.501990020275116	8.426621252655803e-34	2188	2018/02/03 14:22:57.189
UPBOARD	IMU	22.7974910736084	0.9830159544944763	-0.037637997418642044	0.005903999786823988	-0.17197099328041077	-0.4037579894065857	-0.699999988079071	0.5460699796676636	0.5011199712753296	-0.04436999931931496	2189	2018/02/03 14:22:57.222
UPBOARD	IMU	22.7974910736084	0.9852299690246582	-0.04058999940752983	0.006641999818384647	-0.2542179822921753	-0.3065569996833801	-0.6650000214576721	0.5460699796676636	0.5011199712753296	-0.04436999931931496	2189	2018/02/03 14:22:57.249
UPBOARD	IMU	22.79558563232422	0.9859679937362671	-0.03911399841308594	0.0051659997552633286	-0.2542179822921753	-0.38880398869514465	-0.4724999964237213	0.5460699796676636	0.5011199712753296	-0.04436999931931496	2189	2018/02/03 14:22:57.285
UPBOARD	IMU	22.793678283691406	0.9837539792060852	-0.03689999878406525	0.005903999786823988	-0.09720099717378616	-0.2841259837150574	-0.7262499928474426	0.5565099716186523	0.5069199800491333	-0.037700001150369644	2189	2018/02/03 14:22:57.308
UPBOARD	IMU	22.793678283691406	0.9859679937362671	-0.03320999816060066	0.005903999786823988	-0.2542179822921753	-0.3588959872722626	-0.6037499904632568	0.5565099716186523	0.5069199800491333	-0.037700001150369644	2189	2018/02/03 14:22:57.342
UPBOARD	IMU	22.801305770874023	0.9867059588432312	-0.03616200014948845	0.0051659997552633286	-0.11963199824094772	-0.12710899114608765	-0.4724999964237213	0.5565099716186523	0.5069199800491333	-0.037700001150369644	2189	2018/02/03 14:22:57.375
UPBOARD	IMU	22.79558563232422	0.9822779893875122	-0.034685999155044556	0.006641999818384647	-0.2990799844264984	-0.15701699256896973	-0.6474999785423279	0.5489699840545654	0.5060499906539917	-0.02029999904334545	2189	2018/02/03 14:22:57.409
UPBOARD	IMU	22.7974910736084	0.9881819486618042	-0.03837599977850914	0.005903999786823988	-0.46357399225234985	-0.261694997549057	-0.48124998807907104	0.5489699840545654	0.5060499906539917	-0.02029999904334545	2189	2018/02/03 14:22:57.443
UPBOARD	IMU	22.79939842224121	0.9889199733734131	-0.03689999878406525	0.0036899999249726534	-0.4785279929637909	-0.09720099717378616	-0.4375	0.5489699840545654	0.5060499906539917	-0.02029999904334545	2189	2018/02/03 14:22:57.476
UPBOARD	IMU	22.79558563232422	0.9837539792060852	-0.03689999878406525	0.007379999849945307	-0.09720099717378616	-0.26917198300361633	-0.6299999952316284	0.5489699840545654	0.5060499906539917	-0.02029999904334545	2189	2018/02/03 14:22:57.511
UPBOARD	IMU	22.80512046813965	0.9852299690246582	-0.03394800052046776	0.0051659997552633286	-0.20187899470329285	-0.41871199011802673	-0.5337499976158142	0.5539000034332275	0.4993799924850464	-0.03914999961853027	2189	2018/02/03 14:22:57.539
UPBOARD	IMU	22.80702781677246	0.9844919443130493	-0.04058999940752983	0.0051659997552633286	0.0373849980533123	-0.15701699256896973	-0.6825000047683716	0.5539000034332275	0.4993799924850464	-0.03914999961853027	2189	2018/02/03 14:22:57.564
UPBOARD	IMU	22.80893325805664	0.9852299690246582	-0.039851997047662735	0.0051659997552633286	-0.08224699646234512	-0.3364650011062622	-0.5687500238418579	0.5539000034332275	0.4993799924850464	-0.03914999961853027	2189	2018/02/03 14:22:57.598
UPBOARD	IMU	-1.7205129736273111e-13	-4.4583455149904694e-08	-7.31736412390012e+27	-2.3204520749414347e+29	1.2314217338113147e-24	-1.843786159750318e+27	1598826624.0	-4.343957138441823e-11	-2.9843101501464844	1.7358715047580854e-38	4872	2018/02/03 14:22:57.632
UPBOARD	IMU	203122064.0	6.068362246193492e+31	5.1253053739683905e-18	50425647104.0	-4.273411714134835e+17	8.089521367917732e-20	1601028736.0	-4.343957138441823e-11	-2.9843101501464844	1.7358715047580854e-38	2189	2018/02/03 14:22:57.677
UPBOARD	IMU	22.78986358642578	0.9815399646759033	-0.03911399841308594	0.0051659997552633286	-0.1420629918575287	-0.32151100039482117	-0.6650000214576721	0.5492600202560425	0.49792999029159546	-0.03248000144958496	2189	2018/02/03 14:22:57.711
UPBOARD	IMU	22.803213119506836	0.9815399646759033	-0.03911399841308594	0.0051659997552633286	0.20187899470329285	-0.19440199434757233	-0.29750001430511475	0.5460699796676636	0.5043100118637085	-0.033640000969171524	2189	2018/02/03 14:22:57.744
UPBOARD	IMU	22.78795623779297	0.9867059588432312	-0.03616200014948845	0.004427999723702669	-0.1420629918575287	-0.27664899826049805	-0.4375	0.5460699796676636	0.5043100118637085	-0.033640000969171524	2189	2018/02/03 14:22:57.778
UPBOARD	IMU	22.7974910736084	0.9859679937362671	-0.03837599977850914	0.0051659997552633286	-0.5383439660072327	-0.4411430060863495	-0.5074999928474426	0.5460699796676636	0.5043100118637085	-0.033640000969171524	2189	2018/02/03 14:22:57.810
UPBOARD	IMU	22.801305770874023	0.9867059588432312	-0.03837599977850914	0.008117999881505966	-0.20935599505901337	-0.24674099683761597	-0.44624999165534973	0.5518699884414673	0.4982199966907501	-0.04292000085115433	2189	2018/02/03 14:22:57.844
UPBOARD	IMU	22.79939842224121	-0.06139237433671951	0.005903999786823988	-0.3663730025291443	-0.4560970067977905	-0.6825000047683716	0.5518699884414673	0.4982199966907501	-0.04292000085115433	0.0	2189	2018/02/03 14:22:57.878
UPBOARD	IMU	22.79939842224121	0.9859679937362671	-0.03837599977850914	0.005903999786823988	0.12710899114608765	-0.5607749819755554	-0.24500000476837158	0.5518699884414673	0.4982199966907501	-0.04292000085115433	2189	2018/02/03 14:22:57.900
UPBOARD	IMU	22.801305770874023	0.9852299690246582	-0.03616200014948845	0.005903999786823988	0.02243099920451641	-0.08224699646234512	-0.5425000190734863	0.5524500012397766	0.5016999840736389	-0.03683000057935715	2189	2018/02/03 14:22:57.933
UPBOARD	IMU	22.810840606689453	0.9852299690246582	-0.03689999878406525	3.7006461010440155e-29	-6.707128840486912e+15	410171408384.0	1.717515227911684e+18	1.443551456286097e+25	2.3542776407986277e-30	1.7365107771175103e-38	2189	2018/02/03 14:22:57.966
UPBOARD	IMU	22.79939842224121	0.9852299690246582	-0.03837599977850914	0.007379999849945307	-8.06110319023256e-20	-379.9140930175781	1.7195643052689981e+18	1.443551456286097e+25	2.3542776407986277e-30	1.7365107771175103e-38	2189	2018/02/03 14:22:58.000
UPBOARD	IMU	22.793678283691406	0.9859679937362671	-0.042065996676683426	0.005903999786823988	-0.39628100395202637	-0.08972399681806564	-0.3499999940395355	0.5478100180625916	0.49647998809814453	-0.03480000048875809	2189	2018/02/03 14:22:58.044
UPBOARD	IMU	22.793678283691406	0.9874439835548401	-0.03911399841308594	0.007379999849945307	-0.0747699961066246	-0.4037579894065857	-0.48124998807907104	0.5478100180625916	0.49647998809814453	-0.03480000048875809	2189	2018/02/03 14:22:58.067
UPBOARD	IMU	22.7974910736084	0.9852299690246582	-0.03689999878406525	0.006641999818384647	1.6150319576263428	-0.08224699646234512	-0.5425000190734863	0.5478100180625916	0.49647998809814453	-0.03480000048875809	2189	2018/02/03 14:22:58.102
UPBOARD	IMU	22.80893325805664	0.9881819486618042	-0.03837599977850914	0.009593999944627285	-0.1495399922132492	-0.41871199011802673	-0.5600000023841858	0.5530300140380859	0.4973500072956085	-0.04292000085115433	2189	2018/02/03 14:22:58.127
UPBOARD	IMU	22.793678283691406	0.9867059588432312	-0.03689999878406525	0.006641999818384647	-0.41871199011802673	-0.3663730025291443	-0.4375	0.5530300140380859	0.4973500072956085	-0.04292000085115433	2189	2018/02/03 14:22:58.161
UPBOARD	IMU	22.7974910736084	0.9808019399642944	-0.04058999940752983	0.008117999881505966	-0.35141900181770325	1.037205822267143e+20	-4.2422293298647815e-14	-8.808075411966573e+20	1.7374055061869817e-38	0.0	2189	2018/02/03 14:22:58.196
UPBOARD	IMU	22.793678283691406	0.9859679937362671	-0.037637997418642044	0.008117999881505966	-0.20187899470329285	-0.11963199824094772	-0.3499999940395355	0.5530300140380859	0.4973500072956085	-0.04292000085115433	2190	2018/02/03 14:22:58.220
UPBOARD	IMU	22.803213119506836	0.9859679937362671	-0.037637997418642044	0.007379999849945307	-0.014953999780118465	-0.1121549978852272	-0.4724999964237213	0.5530300140380859	0.5031499862670898	-0.03537999838590622	2190	2018/02/03 14:22:58.255
UPBOARD	IMU	22.803213119506836	0.9852299690246582	-0.03542399778962135	0.006641999818384647	-0.02243099920451641	-0.4560970067977905	-0.42000001668930054	0.5530300140380859	0.5031499862670898	-0.03537999838590622	2190	2018/02/03 14:22:58.288
UPBOARD	IMU	22.79939842224121	0.9844919443130493	-0.03616200014948845	0.0036899999249726534	-0.16449399292469025	-0.3364650011062622	-0.6650000214576721	0.5530300140380859	-1.0111622213323001e-20	1.7362976396210865e-38	2190	2018/02/03 14:22:58.321
UPBOARD	IMU	22.7974910736084	0.9852299690246582	-0.04058999940752983	0.007379999849945307	-0.3813270032405853	-0.27664899826049805	-0.6037499904632568	0.5588299632072449	0.49618998169898987	-0.04349999874830246	2190	2018/02/03 14:22:58.364
UPBOARD	IMU	22.793678283691406	0.9852299690246582	-0.03542399778962135	0.006641999818384647	-0.4037579894065857	0.007476999890059233	-0.38499999046325684	0.5588299632072449	0.49618998169898987	-0.04349999874830246	2190	2018/02/03 14:22:58.396
UPBOARD	IMU	22.791770935058594	0.9815399646759033	-0.04132799804210663	0.008117999881505966	-0.02990799956023693	-0.26917198300361633	-0.5687500238418579	0.5588299632072449	0.49618998169898987	-0.04349999874830246	2190	2018/02/03 14:22:58.428
UPBOARD	IMU	22.79939842224121	0.9881819486618042	-0.039851997047662735	0.004427999723702669	-0.0747699961066246	-0.20187899470329285	-0.48124998807907104	0.5541899800300598	0.504889965057373	-0.03508999943733215	2190	2018/02/03 14:22:58.460
UPBOARD	IMU	22.78986358642578	0.9852299690246582	-0.04280399903655052	0.0051659997552633286	0.08224699646234512	-0.4112350046634674	-0.6650000214576721	0.5541899800300598	0.504889965057373	-0.03508999943733215	2190	2018/02/03 14:22:58.492
UPBOARD	IMU	22.793678283691406	0.9859679937362671	-0.03837599977850914	0.004427999723702669	-0.4037579894065857	-0.261694997549057	-0.21875	0.5541899800300598	0.504889965057373	4.325176362552912e-34	2190	2018/02/03 14:22:58.524
UPBOARD	IMU	22.810840606689453	0.9874439835548401	-0.03689999878406525	0.007379999849945307	-0.4112350046634674	-0.08224699646234512	-0.5774999856948853	0.5501300096511841	0.5045999884605408	-0.045239999890327454	2190	2018/02/03 14:22:58.557
UPBOARD	IMU	22.7974910736084	0.9852299690246582	-0.039851997047662735	0.0051659997552633286	-0.31403398513793945	-0.24674099683761597	-0.4987500011920929	0.5501300096511841	0.5045999884605408	-0.045239999890327454	2190	2018/02/03 14:22:58.589
UPBOARD	IMU	22.79939842224121	0.9852299690246582	-0.037637997418642044	0.007379999849945307	-0.05981599912047386	0.007476999890059233	-0.5074999928474426	0.5501300096511841	0.5045999884605408	-0.045239999890327454	2190	2018/02/03 14:22:58.622
UPBOARD	IMU	22.79558563232422	0.9837539792060852	-0.03542399778962135	0.008855999447405338	-0.15701699256896973	-0.2841259837150574	-0.6474999785423279	0.5472300052642822	0.49879997968673706	-0.03248000144958496	2190	2018/02/03 14:22:58.655
UPBOARD	IMU	22.79939842224121	0.9859679937362671	-0.037637997418642044	0.0051659997552633286	-0.014953999780118465	-0.4860049784183502	-0.5337499976158142	0.5472300052642822	0.49879997968673706	-0.03248000144958496	2190	2018/02/03 14:22:58.689
UPBOARD	IMU	22.79939842224121	0.9844919443130493	-0.03911399841308594	0.008117999881505966	-0.31403398513793945	-0.09720099717378616	-0.8224999904632568	0.5472300052642822	0.49879997968673706	-0.03248000144958496	2190	2018/02/03 14:22:58.726
UPBOARD	IMU	22.79558563232422	0.9844919443130493	-0.03837599977850914	0.006641999818384647	-0.2542179822921753	-0.20187899470329285	-0.5687500238418579	0.5521599650382996	0.49618998169898987	-0.04089000076055527	2190	2018/02/03 14:22:58.749
UPBOARD	IMU	22.803213119506836	0.9867059588432312	-0.03689999878406525	0.010331999510526657	-0.3065569996833801	-0.35141900181770325	-0.3675000071525574	0.5521599650382996	0.49618998169898987	-0.04089000076055527	2190	2018/02/03 14:22:58.799
UPBOARD	IMU	22.801305770874023	0.9830159544944763	-0.03837599977850914	0.0051659997552633286	-0.3588959872722626	-0.34394198656082153	-0.4724999964237213	0.5521599650382996	0.49618998169898987	-0.04089000076055527	2190	2018/02/03 14:22:58.824
UPBOARD	IMU	22.801305770874023	0.9881819486618042	-0.039851997047662735	0.009593999944627285	-0.23178699612617493	-0.3065569996833801	-0.5862500071525574	0.5544800162315369	0.4982199966907501	-0.045239999890327454	2190	2018/02/03 14:22:58.853
UPBOARD	IMU	22.80512046813965	0.9874439835548401	-0.03837599977850914	0.0051659997552633286	-0.20935599505901337	-0.41871199011802673	-0.5687500238418579	0.5544800162315369	0.4982199966907501	-0.045239999890327454	2190	2018/02/03 14:22:58.909
UPBOARD	IMU	22.793678283691406	0.9889199733734131	-0.03911399841308594	0.005903999786823988	-0.19440199434757233	-0.10467799752950668	-0.6212499737739563	0.5544800162315369	0.4982199966907501	-0.045239999890327454	2190	2018/02/03 14:22:58.944
UPBOARD	IMU	-193.71258544921875	5.830332073771551e-39	-23.640727996826172	-2.117443615939625e+17	-4.7167600893811824e+29	-399619200.0	1.0730529112457216e+17	9.687495135152596e+32	6.347206670860679e+37	1.7377038426300365e-38	2190	2018/02/03 14:22:58.979
UPBOARD	IMU	22.7974910736084	0.9867059588432312	-0.03394800052046776	0.009593999944627285	-0.11963199824094772	-0.06729299575090408	-0.4637500047683716	0.5521599650382996	0.5043100118637085	-0.04495000094175339	2190	2018/02/03 14:22:59.023
UPBOARD	IMU	22.803213119506836	0.9822779893875122	-0.03394800052046776	0.008855999447405338	-0.05981599912047386	-0.2841259837150574	-0.6650000214576721	0.5521599650382996	0.5043100118637085	-0.04495000094175339	2190	2018/02/03 14:22:59.056
UPBOARD	IMU	22.7974910736084	0.9844919443130493	-0.04132799804210663	0.006641999818384647	0.1121549978852272	-0.31403398513793945	-0.5337499976158142	0.545199990272522	0.49792999029159546	-0.041759997606277466	2190	2018/02/03 14:22:59.088
UPBOARD	IMU	22.803213119506836	0.9852299690246582	-0.03689999878406525	0.008117999881505966	-0.261694997549057	-0.24674099683761597	-0.39375001192092896	0.545199990272522	0.49792999029159546	-0.041759997606277466	2190	2018/02/03 14:22:59.122
UPBOARD	IMU	22.782236099243164	0.9844919443130493	-0.03911399841308594	0.005903999786823988	-0.09720099717378616	-0.1794479936361313	-0.5950000286102295	0.545199990272522	0.49792999029159546	-0.041759997606277466	2190	2018/02/03 14:22:59.155
UPBOARD	IMU	22.78986358642578	0.9830159544944763	-0.039851997047662735	0.006641999818384647	-0.23926399648189545	-0.20187899470329285	-0.4637500047683716	0.5466499924659729	0.4976399838924408	-0.04436999931931496	2190	2018/02/03 14:22:59.188
UPBOARD	IMU	22.784143447875977	0.9844919443130493	750.6449584960938	7.536487685270014e+30	1.981924335015653e+36	23.850624084472656	-6.787340329529601e-13	51269902336.0	1.7376186436834055e-38	0.0	2191	2018/02/03 14:22:59.212
UPBOARD	IMU	22.801305770874023	0.9889199733734131	-0.04058999940752983	0.006641999818384647	0.04486199840903282	-0.20935599505901337	-0.7175000309944153	0.5466499924659729	0.4976399838924408	-0.04436999931931496	2191	2018/02/03 14:22:59.246
UPBOARD	IMU	22.791770935058594	0.9881819486618042	-0.04058999940752983	0.006641999818384647	-0.3289879858493805	-0.17197099328041077	-0.6387500166893005	0.5547699928283691	0.5031499862670898	-0.047269999980926514	2191	2018/02/03 14:22:59.279
UPBOARD	IMU	22.801305770874023	0.9867059588432312	-0.03911399841308594	0.004427999723702669	-1.9308573239772482e+33	409242173440.0	7.203780990490888e+24	2.365143417967357e+29	6.948653874516708e-10	1.7380447785464067e-38	2191	2018/02/03 14:22:59.313
UPBOARD	IMU	22.79939842224121	0.9881819486618042	-0.03689999878406525	0.005903999786823988	-0.4560970067977905	-0.41871199011802673	-0.32374998927116394	0.5547699928283691	0.5031499862670898	-0.047269999980926514	2191	2018/02/03 14:22:59.346
UPBOARD	IMU	22.801305770874023	0.9859679937362671	-0.04058999940752983	0.006641999818384647	-0.2243099957704544	-0.1869249939918518	-0.32374998927116394	0.5573800206184387	0.5028600096702576	-0.04552999883890152	2191	2018/02/03 14:22:59.380
UPBOARD	IMU	22.78986358642578	0.9815399646759033	-0.042065996676683426	0.0051659997552633286	-0.23926399648189545	-0.09720099717378616	-0.42000001668930054	0.5573800206184387	0.5028600096702576	-0.04552999883890152	2191	2018/02/03 14:22:59.413
UPBOARD	IMU	22.78605079650879	0.9844919443130493	-0.03837599977850914	0.005903999786823988	-0.3065569996833801	-0.3663730025291443	-0.3762499988079071	0.5573800206184387	0.5028600096702576	-0.04552999883890152	2191	2018/02/03 14:22:59.436
UPBOARD	IMU	22.801305770874023	0.9844919443130493	-0.037637997418642044	0.0051659997552633286	-0.0373849980533123	-0.3065569996833801	-0.44624999165534973	0.5509999990463257	0.504889965057373	-0.04465999826788902	2191	2018/02/03 14:22:59.469
UPBOARD	IMU	22.791770935058594	0.9830159544944763	-0.03616200014948845	0.005903999786823988	-0.1495399922132492	-0.20187899470329285	-0.7175000309944153	0.5509999990463257	0.504889965057373	-0.04465999826788902	2191	2018/02/03 14:22:59.502
UPBOARD	IMU	22.79558563232422	0.9859679937362671	-0.03911399841308594	0.004427999723702669	-0.02990799956023693	-0.27664899826049805	1.5499898132801168e+34	9.019950566581944e+23	1.737661243156721e-38	0.0	2191	2018/02/03 14:22:59.536
UPBOARD	IMU	22.79558563232422	0.9867059588432312	-0.03837599977850914	0.004427999723702669	-0.35141900181770325	-0.1495399922132492	-0.5512499809265137	0.5480999946594238	0.49792999029159546	-0.037700001150369644	2191	2018/02/03 14:22:59.571
UPBOARD	IMU	22.793678283691406	0.9815399646759033	-0.037637997418642044	0.007379999849945307	0.1420629918575287	-0.27664899826049805	-0.44624999165534973	0.5480999946594238	0.49792999029159546	-0.037700001150369644	2191	2018/02/03 14:22:59.605
UPBOARD	IMU	22.793678283691406	0.9844919443130493	-0.04354199767112732	0.005903999786823988	-0.1121549978852272	0.0	-0.4112499952316284	0.5480999946594238	51270057984.0	1.7366385755374568e-38	2191	2018/02/03 14:22:59.628
UPBOARD	IMU	22.801305770874023	0.9837539792060852	-0.03911399841308594	0.0036899999249726534	0.02243099920451641	-0.32151100039482117	-0.699999988079071	0.5480999946594238	0.49792999029159546	-0.037700001150369644	2191	2018/02/03 14:22:59.665
UPBOARD	IMU	22.791770935058594	0.9822779893875122	-0.03911399841308594	0.0051659997552633286	-0.20935599505901337	-0.261694997549057	-0.19249999523162842	0.5504199862480164	0.5040199756622314	-0.04465999826788902	2191	2018/02/03 14:22:59.714
UPBOARD	IMU	22.791770935058594	0.9867059588432312	-0.039851997047662735	0.008117999881505966	-0.1869249939918518	-0.2841259837150574	-0.5074999928474426	0.5504199862480164	0.5040199756622314	-0.04465999826788902	2191	2018/02/03 14:22:59.748
UPBOARD	IMU	22.79939842224121	0.9859679937362671	-0.03837599977850914	0.004427999723702669	-0.47105100750923157	-0.13458599150180817	-0.45500001311302185	0.5504199862480164	0.5040199756622314	-0.04465999826788902	2191	2018/02/03 14:22:59.772
UPBOARD	IMU	22.79939842224121	0.9822779893875122	-0.03911399841308594	0.005903999786823988	-0.27664899826049805	-0.32151100039482117	-0.3062500059604645	0.5524500012397766	0.49445000290870667	-0.0423399992287159	2191	2018/02/03 14:22:59.807
UPBOARD	IMU	22.79558563232422	0.9844919443130493	-0.037637997418642044	0.006641999818384647	-0.3065569996833801	0.15701699256896973	-0.42000001668930054	0.5524500012397766	0.49445000290870667	-0.0423399992287159	2191	2018/02/03 14:22:59.846
UPBOARD	IMU	22.801305770874023	0.9859679937362671	-0.03689999878406525	0.007379999849945307	-0.02990799956023693	-0.08224699646234512	-0.5074999928474426	0.5524500012397766	0.49445000290870667	-0.0423399992287159	2191	2018/02/03 14:22:59.869
UPBOARD	IMU	22.803213119506836	0.9867059588432312	-0.03542399778962135	0.006641999818384647	-0.19440199434757233	-0.2916029989719391	-0.7437499761581421	0.5591199994087219	0.5040199756622314	-0.04958999902009964	2191	2018/02/03 14:22:59.904
UPBOARD	IMU	22.79939842224121	0.9837539792060852	-0.042065996676683426	0.005903999786823988	-0.02990799956023693	-0.4336659908294678	-0.2537499964237213	0.5591199994087219	0.5040199756622314	-0.04958999902009964	2191	2018/02/03 14:22:59.938
UPBOARD	IMU	22.7974910736084	0.9852299690246582	-0.04058999940752983	0.007379999849945307	-0.09720099717378616	-0.261694997549057	-0.5425000190734863	0.5591199994087219	0.5040199756622314	-0.04958999902009964	2191	2018/02/03 14:22:59.963
